# Top-of-atmosphere (TOA) lunar irradiance from Miller and Turner (2009) by 10 nm increments
# First column wavelength (nm), second column TOA irradiance# Phase angle = 155
# Units = mW/m^2-micrometer

300 0.3271
310 0.3256
320 0.4929
330 0.8005
340 0.72
350 0.6639
360 0.8753
370 1.054
380 0.9177
390 1.084
400 1.56
410 1.627
420 1.691
430 1.491
440 1.818
450 2.16
460 2.217
470 2.237
480 2.386
490 2.321
500 2.295
510 2.323
520 2.22
530 2.374
540 2.353
550 2.462
560 2.334
570 2.417
580 2.462
590 2.309
600 2.492
610 2.461
620 2.465
630 2.48
640 2.451
650 2.38
660 2.396
670 2.409
680 2.368
690 2.382
700 2.373
710 2.301
720 2.248
730 2.193
740 2.155
750 2.159
