# Top-of-atmosphere (TOA) lunar irradiance from Miller and Turner (2009)
# First column wavelength (nm), second column TOA irradiance# Lunar phase angle: 133
# Irradiance units: mW/m^2-micrometer

300 0.1859
301 0.1382
302 0.174
303 0.1663
304 0.2352
305 0.219
306 0.2236
307 0.2068
308 0.2405
309 0.2426
310 0.1852
311 0.2461
312 0.2919
313 0.2535
314 0.275
315 0.2527
316 0.2602
317 0.2378
318 0.3312
319 0.2547
320 0.2807
321 0.3468
322 0.2751
323 0.2883
324 0.2689
325 0.3222
326 0.3609
327 0.4114
328 0.3994
329 0.3714
330 0.4565
331 0.4214
332 0.4173
333 0.4049
334 0.388
335 0.415
336 0.423
337 0.3349
338 0.3676
339 0.3947
340 0.411
341 0.454
342 0.3981
343 0.4429
344 0.4452
345 0.3212
346 0.4384
347 0.4069
348 0.4036
349 0.4209
350 0.3794
351 0.5014
352 0.4475
353 0.4008
354 0.4837
355 0.5148
356 0.4827
357 0.4315
358 0.392
359 0.2927
360 0.5007
361 0.4723
362 0.4186
363 0.4787
364 0.452
365 0.4878
366 0.56
367 0.5962
368 0.575
369 0.513
370 0.6037
371 0.5353
372 0.6192
373 0.5116
374 0.4417
375 0.4507
376 0.5418
377 0.5318
378 0.641
379 0.6882
380 0.5262
381 0.6162
382 0.5602
383 0.4018
384 0.3349
385 0.4857
386 0.5112
387 0.5177
388 0.5058
389 0.4865
390 0.6221
391 0.6366
392 0.7413
393 0.5606
394 0.2442
395 0.5654
396 0.7315
397 0.3889
398 0.4372
399 0.8334
400 0.8965
401 0.9007
402 0.98
403 0.9954
404 0.975
405 0.9529
406 0.9264
407 0.9023
408 0.9151
409 0.9279
410 0.936
411 0.8672
412 0.9027
413 0.9383
414 0.9741
415 0.9779
416 0.9804
417 0.9931
418 0.9735
419 0.9731
420 0.9741
421 0.9981
422 1.017
423 0.9827
424 0.971
425 0.9948
426 0.9879
427 0.9839
428 0.9476
429 0.9472
430 0.8598
431 0.718
432 0.8898
433 0.9836
434 0.971
435 0.951
436 1.022
437 1.08
438 1.047
439 1.007
440 1.049
441 1.095
442 1.137
443 1.173
444 1.176
445 1.178
446 1.159
447 1.152
448 1.22
449 1.235
450 1.248
451 1.305
452 1.311
453 1.25
454 1.219
455 1.276
456 1.285
457 1.321
458 1.322
459 1.29
460 1.283
461 1.304
462 1.325
463 1.338
464 1.324
465 1.296
466 1.296
467 1.287
468 1.281
469 1.305
470 1.296
471 1.278
472 1.31
473 1.351
474 1.335
475 1.365
476 1.365
477 1.347
478 1.383
479 1.384
480 1.383
481 1.378
482 1.389
483 1.377
484 1.36
485 1.345
486 1.225
487 1.157
488 1.254
489 1.294
490 1.348
491 1.368
492 1.321
493 1.319
494 1.336
495 1.369
496 1.37
497 1.366
498 1.356
499 1.335
500 1.334
501 1.313
502 1.288
503 1.317
504 1.343
505 1.338
506 1.389
507 1.411
508 1.392
509 1.372
510 1.351
511 1.337
512 1.365
513 1.351
514 1.32
515 1.304
516 1.325
517 1.234
518 1.162
519 1.207
520 1.293
521 1.318
522 1.343
523 1.317
524 1.342
525 1.383
526 1.369
527 1.255
528 1.286
529 1.369
530 1.384
531 1.405
532 1.409
533 1.394
534 1.376
535 1.382
536 1.424
537 1.393
538 1.394
539 1.404
540 1.374
541 1.347
542 1.378
543 1.395
544 1.408
545 1.422
546 1.426
547 1.428
548 1.412
549 1.42
550 1.438
551 1.432
552 1.439
553 1.438
554 1.435
555 1.45
556 1.444
557 1.416
558 1.4
559 1.383
560 1.365
561 1.4
562 1.414
563 1.399
564 1.407
565 1.412
566 1.401
567 1.403
568 1.429
569 1.418
570 1.416
571 1.403
572 1.406
573 1.462
574 1.471
575 1.459
576 1.439
577 1.446
578 1.45
579 1.432
580 1.444
581 1.458
582 1.466
583 1.482
584 1.485
585 1.475
586 1.45
587 1.448
588 1.469
589 1.414
590 1.355
591 1.422
592 1.457
593 1.461
594 1.46
595 1.466
596 1.461
597 1.472
598 1.472
599 1.46
600 1.464
601 1.456
602 1.441
603 1.448
604 1.476
605 1.483
606 1.476
607 1.472
608 1.467
609 1.455
610 1.448
611 1.45
612 1.453
613 1.448
614 1.431
615 1.431
616 1.421
617 1.396
618 1.419
619 1.442
620 1.452
621 1.466
622 1.457
623 1.45
624 1.443
625 1.431
626 1.427
627 1.457
628 1.476
629 1.478
630 1.462
631 1.456
632 1.437
633 1.456
634 1.449
635 1.455
636 1.456
637 1.453
638 1.475
639 1.475
640 1.447
641 1.437
642 1.432
643 1.448
644 1.445
645 1.448
646 1.437
647 1.44
648 1.451
649 1.448
650 1.406
651 1.457
652 1.466
653 1.446
654 1.435
655 1.413
656 1.321
657 1.215
658 1.346
659 1.412
660 1.418
661 1.431
662 1.44
663 1.436
664 1.42
665 1.425
666 1.429
667 1.422
668 1.42
669 1.43
670 1.427
671 1.422
672 1.417
673 1.413
674 1.411
675 1.41
676 1.408
677 1.407
678 1.406
679 1.405
680 1.404
681 1.403
682 1.402
683 1.402
684 1.402
685 1.402
686 1.402
687 1.402
688 1.403
689 1.406
690 1.414
691 1.417
692 1.41
693 1.406
694 1.409
695 1.402
696 1.401
697 1.406
698 1.388
699 1.405
700 1.41
701 1.391
702 1.383
703 1.389
704 1.397
705 1.412
706 1.403
707 1.387
708 1.389
709 1.377
710 1.369
711 1.375
712 1.357
713 1.352
714 1.356
715 1.353
716 1.349
717 1.355
718 1.354
719 1.337
720 1.339
721 1.342
722 1.343
723 1.342
724 1.348
725 1.345
726 1.334
727 1.339
728 1.337
729 1.312
730 1.307
731 1.332
732 1.329
733 1.329
734 1.33
735 1.331
736 1.317
737 1.314
738 1.313
739 1.284
740 1.286
741 1.279
742 1.27
743 1.29
744 1.31
745 1.297
746 1.311
747 1.306
748 1.312
749 1.304
750 1.29
