# Top-of-atmosphere (TOA) lunar irradiance from Miller and Turner (2009) by 10 nm increments
# First column wavelength (nm), second column TOA irradiance# Phase angle = 131
# Units = mW/m^2-micrometer

300 0.1771
310 0.1765
320 0.2675
330 0.4351
340 0.3918
350 0.3617
360 0.4774
370 0.5756
380 0.5017
390 0.5931
400 0.8548
410 0.8925
420 0.9289
430 0.8199
440 1.001
450 1.19
460 1.224
470 1.236
480 1.32
490 1.285
500 1.272
510 1.289
520 1.233
530 1.321
540 1.311
550 1.373
560 1.303
570 1.351
580 1.378
590 1.294
600 1.398
610 1.382
620 1.386
630 1.396
640 1.381
650 1.343
660 1.354
670 1.362
680 1.34
690 1.35
700 1.346
710 1.307
720 1.279
730 1.249
740 1.229
750 1.233
