# Top-of-atmosphere (TOA) lunar irradiance from Miller and Turner (2009) by 10 nm increments
# First column wavelength (nm), second column TOA irradiance# Phase angle = 151
# Units = mW/m^2-micrometer

300 0.2946
310 0.2933
320 0.4442
330 0.7216
340 0.6492
350 0.5988
360 0.7896
370 0.9511
380 0.8283
390 0.9783
400 1.409
410 1.469
420 1.528
430 1.347
440 1.643
450 1.953
460 2.005
470 2.023
480 2.159
490 2.101
500 2.077
510 2.103
520 2.01
530 2.15
540 2.132
550 2.231
560 2.116
570 2.192
580 2.233
590 2.094
600 2.261
610 2.234
620 2.238
630 2.252
640 2.226
650 2.162
660 2.177
670 2.19
680 2.152
690 2.166
700 2.158
710 2.093
720 2.045
730 1.996
740 1.962
750 1.966
