# Top-of-atmosphere (TOA) lunar irradiance from Miller and Turner (2009) by 10 nm increments
# First column wavelength (nm), second column TOA irradiance# Phase angle = 166
# Units = mW/m^2-micrometer

300 0.4373
310 0.435
320 0.6581
330 1.068
340 0.9601
350 0.8847
360 1.166
370 1.403
380 1.22
390 1.44
400 2.072
410 2.159
420 2.243
430 1.976
440 2.408
450 2.859
460 2.933
470 2.957
480 3.152
490 3.064
500 3.027
510 3.061
520 2.924
530 3.125
540 3.095
550 3.236
560 3.066
570 3.173
580 3.23
590 3.027
600 3.264
610 3.222
620 3.225
630 3.242
640 3.202
650 3.107
660 3.127
670 3.141
680 3.085
690 3.101
700 3.087
710 2.992
720 2.921
730 2.847
740 2.796
750 2.8
