# Top-of-atmosphere (TOA) lunar irradiance from Miller and Turner (2009) by 10 nm increments
# First column wavelength (nm), second column TOA irradiance# Phase angle = 133
# Units = mW/m^2-micrometer

300 0.1859
310 0.1852
320 0.2807
330 0.4565
340 0.411
350 0.3794
360 0.5007
370 0.6037
380 0.5262
390 0.6221
400 0.8965
410 0.936
420 0.9741
430 0.8598
440 1.049
450 1.248
460 1.283
470 1.296
480 1.383
490 1.348
500 1.334
510 1.351
520 1.293
530 1.384
540 1.374
550 1.438
560 1.365
570 1.416
580 1.444
590 1.355
600 1.464
610 1.448
620 1.452
630 1.462
640 1.447
650 1.406
660 1.418
670 1.427
680 1.404
690 1.414
700 1.41
710 1.369
720 1.339
730 1.307
740 1.286
750 1.29
