# Top-of-atmosphere (TOA) lunar irradiance from Miller and Turner (2009) by 10 nm increments
# First column wavelength (nm), second column TOA irradiance# Phase angle = 143
# Units = mW/m^2-micrometer

300 0.2383
310 0.2373
320 0.3596
330 0.5845
340 0.5261
350 0.4855
360 0.6405
370 0.7719
380 0.6726
390 0.7947
400 1.145
410 1.195
420 1.243
430 1.097
440 1.338
450 1.591
460 1.635
470 1.65
480 1.762
490 1.715
500 1.697
510 1.719
520 1.644
530 1.759
540 1.745
550 1.827
560 1.733
570 1.797
580 1.831
590 1.718
600 1.856
610 1.835
620 1.839
630 1.851
640 1.831
650 1.779
660 1.793
670 1.804
680 1.774
690 1.786
700 1.78
710 1.728
720 1.689
730 1.649
740 1.622
750 1.626
