# Top-of-atmosphere (TOA) lunar irradiance from Miller and Turner (2009) by 10 nm increments
# First column wavelength (nm), second column TOA irradiance# Phase angle = 113
# Units = mW/m^2-micrometer

300 0.1139
310 0.1135
320 0.1721
330 0.2799
340 0.2521
350 0.2328
360 0.3074
370 0.3707
380 0.3232
390 0.3821
400 0.5509
410 0.5753
420 0.5989
430 0.5287
440 0.6455
450 0.768
460 0.7895
470 0.7977
480 0.852
490 0.83
500 0.8218
510 0.8328
520 0.7969
530 0.8534
540 0.8472
550 0.8875
560 0.8427
570 0.874
580 0.8914
590 0.837
600 0.9046
610 0.8947
620 0.8974
630 0.904
640 0.8948
650 0.8699
660 0.8772
670 0.8832
680 0.8691
690 0.8755
700 0.8733
710 0.8482
720 0.8296
730 0.8105
740 0.7975
750 0.8003
