# Top-of-atmosphere (TOA) lunar irradiance from Miller and Turner (2009) by 10 nm increments
# First column wavelength (nm), second column TOA irradiance# Phase angle = 159
# Units = mW/m^2-micrometer

300 0.3631
310 0.3613
320 0.5469
330 0.8881
340 0.7986
350 0.7362
360 0.9703
370 1.168
380 1.017
390 1.2
400 1.728
410 1.801
420 1.872
430 1.65
440 2.011
450 2.389
460 2.452
470 2.473
480 2.638
490 2.565
500 2.536
510 2.566
520 2.451
530 2.621
540 2.597
550 2.716
560 2.575
570 2.666
580 2.715
590 2.545
600 2.746
610 2.712
620 2.716
630 2.731
640 2.699
650 2.62
660 2.637
670 2.651
680 2.605
690 2.619
700 2.609
710 2.53
720 2.47
730 2.409
740 2.367
750 2.371
