# Top-of-atmosphere (TOA) lunar irradiance from Miller and Turner (2009) by 10 nm increments
# First column wavelength (nm), second column TOA irradiance# Phase angle = 126
# Units = mW/m^2-micrometer

300 0.1572
310 0.1567
320 0.2375
330 0.3862
340 0.3478
350 0.3211
360 0.4239
370 0.5111
380 0.4455
390 0.5268
400 0.7592
410 0.7928
420 0.8251
430 0.7284
440 0.8891
450 1.058
460 1.087
470 1.098
480 1.173
490 1.142
500 1.131
510 1.146
520 1.096
530 1.174
540 1.165
550 1.22
560 1.159
570 1.202
580 1.225
590 1.15
600 1.243
610 1.229
620 1.233
630 1.242
640 1.229
650 1.195
660 1.204
670 1.212
680 1.193
690 1.202
700 1.198
710 1.164
720 1.138
730 1.112
740 1.094
750 1.097
