# Top-of-atmosphere (TOA) lunar irradiance from Miller and Turner (2009) by 10 nm increments
# First column wavelength (nm), second column TOA irradiance# Phase angle = 150
# Units = mW/m^2-micrometer

300 0.287
310 0.2858
320 0.4328
330 0.7031
340 0.6326
350 0.5835
360 0.7695
370 0.927
380 0.8073
390 0.9536
400 1.373
410 1.432
420 1.49
430 1.314
440 1.602
450 1.904
460 1.955
470 1.973
480 2.105
490 2.049
500 2.026
510 2.051
520 1.961
530 2.098
540 2.08
550 2.176
560 2.064
570 2.139
580 2.179
590 2.044
600 2.206
610 2.18
620 2.184
630 2.198
640 2.173
650 2.11
660 2.126
670 2.138
680 2.102
690 2.115
700 2.107
710 2.044
720 1.997
730 1.949
740 1.916
750 1.921
