# Top-of-atmosphere (TOA) lunar irradiance from Miller and Turner (2009)
# First column wavelength (nm), second column TOA irradiance# Lunar phase angle: 122
# Irradiance units: mW/m^2-micrometer

300 0.1429
301 0.1063
302 0.1338
303 0.1279
304 0.1809
305 0.1685
306 0.172
307 0.1591
308 0.185
309 0.1866
310 0.1425
311 0.1893
312 0.2246
313 0.195
314 0.2116
315 0.1944
316 0.2002
317 0.183
318 0.2548
319 0.1959
320 0.216
321 0.2668
322 0.2116
323 0.2218
324 0.2069
325 0.2479
326 0.2777
327 0.3166
328 0.3073
329 0.2857
330 0.3512
331 0.3243
332 0.3211
333 0.3116
334 0.2985
335 0.3193
336 0.3255
337 0.2577
338 0.2829
339 0.3037
340 0.3163
341 0.3494
342 0.3064
343 0.3409
344 0.3426
345 0.2472
346 0.3374
347 0.3131
348 0.3107
349 0.324
350 0.292
351 0.386
352 0.3444
353 0.3085
354 0.3724
355 0.3962
356 0.3716
357 0.3322
358 0.3017
359 0.2253
360 0.3855
361 0.3636
362 0.3223
363 0.3685
364 0.348
365 0.3756
366 0.4311
367 0.459
368 0.4427
369 0.395
370 0.4649
371 0.4122
372 0.4768
373 0.3939
374 0.3401
375 0.3471
376 0.4172
377 0.4095
378 0.4936
379 0.53
380 0.4052
381 0.4745
382 0.4314
383 0.3095
384 0.2579
385 0.3741
386 0.3937
387 0.3987
388 0.3895
389 0.3747
390 0.4791
391 0.4903
392 0.5709
393 0.4318
394 0.1881
395 0.4355
396 0.5635
397 0.2995
398 0.3368
399 0.642
400 0.6906
401 0.6939
402 0.755
403 0.7669
404 0.7511
405 0.7341
406 0.7137
407 0.6952
408 0.705
409 0.7149
410 0.7211
411 0.6682
412 0.6955
413 0.7229
414 0.7506
415 0.7535
416 0.7555
417 0.7653
418 0.7501
419 0.7499
420 0.7506
421 0.7692
422 0.7841
423 0.7573
424 0.7483
425 0.7666
426 0.7614
427 0.7583
428 0.7303
429 0.73
430 0.6626
431 0.5534
432 0.6858
433 0.7581
434 0.7484
435 0.733
436 0.7881
437 0.8326
438 0.8072
439 0.7762
440 0.8089
441 0.8445
442 0.8768
443 0.904
444 0.9069
445 0.908
446 0.8931
447 0.8878
448 0.9402
449 0.9522
450 0.9623
451 1.006
452 1.011
453 0.9641
454 0.94
455 0.9836
456 0.9908
457 1.018
458 1.019
459 0.9948
460 0.9892
461 1.005
462 1.022
463 1.032
464 1.021
465 0.9991
466 0.9998
467 0.9925
468 0.9878
469 1.006
470 0.9993
471 0.9854
472 1.01
473 1.042
474 1.029
475 1.053
476 1.053
477 1.039
478 1.067
479 1.067
480 1.067
481 1.063
482 1.071
483 1.062
484 1.049
485 1.038
486 0.9447
487 0.8929
488 0.9672
489 0.9981
490 1.04
491 1.055
492 1.019
493 1.017
494 1.03
495 1.056
496 1.057
497 1.054
498 1.047
499 1.03
500 1.029
501 1.014
502 0.9941
503 1.016
504 1.036
505 1.033
506 1.072
507 1.089
508 1.074
509 1.059
510 1.043
511 1.032
512 1.053
513 1.043
514 1.019
515 1.006
516 1.023
517 0.9528
518 0.8968
519 0.9315
520 0.9979
521 1.017
522 1.037
523 1.017
524 1.036
525 1.068
526 1.057
527 0.9686
528 0.9925
529 1.057
530 1.069
531 1.085
532 1.088
533 1.077
534 1.062
535 1.067
536 1.099
537 1.075
538 1.076
539 1.084
540 1.061
541 1.04
542 1.064
543 1.077
544 1.087
545 1.098
546 1.101
547 1.103
548 1.091
549 1.097
550 1.111
551 1.106
552 1.111
553 1.11
554 1.108
555 1.12
556 1.116
557 1.094
558 1.081
559 1.068
560 1.055
561 1.081
562 1.092
563 1.081
564 1.087
565 1.091
566 1.082
567 1.083
568 1.104
569 1.096
570 1.094
571 1.084
572 1.086
573 1.13
574 1.136
575 1.127
576 1.112
577 1.117
578 1.12
579 1.106
580 1.115
581 1.126
582 1.133
583 1.145
584 1.147
585 1.14
586 1.12
587 1.119
588 1.135
589 1.093
590 1.047
591 1.099
592 1.126
593 1.129
594 1.129
595 1.133
596 1.129
597 1.138
598 1.138
599 1.128
600 1.132
601 1.126
602 1.113
603 1.119
604 1.141
605 1.146
606 1.141
607 1.138
608 1.134
609 1.124
610 1.119
611 1.121
612 1.124
613 1.119
614 1.106
615 1.107
616 1.099
617 1.079
618 1.097
619 1.115
620 1.123
621 1.134
622 1.127
623 1.121
624 1.116
625 1.107
626 1.104
627 1.126
628 1.141
629 1.143
630 1.131
631 1.126
632 1.111
633 1.126
634 1.121
635 1.125
636 1.126
637 1.124
638 1.141
639 1.141
640 1.119
641 1.111
642 1.108
643 1.12
644 1.117
645 1.12
646 1.111
647 1.114
648 1.122
649 1.12
650 1.088
651 1.127
652 1.134
653 1.118
654 1.11
655 1.094
656 1.022
657 0.9401
658 1.041
659 1.092
660 1.097
661 1.107
662 1.114
663 1.111
664 1.099
665 1.103
666 1.106
667 1.101
668 1.098
669 1.106
670 1.104
671 1.101
672 1.096
673 1.094
674 1.092
675 1.091
676 1.09
677 1.089
678 1.088
679 1.087
680 1.086
681 1.086
682 1.085
683 1.085
684 1.085
685 1.085
686 1.085
687 1.085
688 1.086
689 1.088
690 1.094
691 1.097
692 1.092
693 1.088
694 1.091
695 1.085
696 1.085
697 1.089
698 1.074
699 1.088
700 1.092
701 1.077
702 1.071
703 1.076
704 1.081
705 1.093
706 1.087
707 1.074
708 1.076
709 1.067
710 1.06
711 1.065
712 1.051
713 1.047
714 1.05
715 1.048
716 1.045
717 1.05
718 1.049
719 1.036
720 1.037
721 1.039
722 1.04
723 1.039
724 1.044
725 1.042
726 1.034
727 1.037
728 1.035
729 1.017
730 1.013
731 1.032
732 1.03
733 1.03
734 1.03
735 1.031
736 1.02
737 1.018
738 1.017
739 0.9945
740 0.9964
741 0.9912
742 0.9843
743 0.9995
744 1.015
745 1.005
746 1.016
747 1.012
748 1.016
749 1.011
750 0.9997
