# Top-of-atmosphere (TOA) lunar irradiance from Miller and Turner (2009) by 10 nm increments
# First column wavelength (nm), second column TOA irradiance# Phase angle = 157
# Units = mW/m^2-micrometer

300 0.3446
310 0.343
320 0.5192
330 0.8431
340 0.7583
350 0.6991
360 0.9216
370 1.11
380 0.9661
390 1.141
400 1.642
410 1.712
420 1.779
430 1.569
440 1.912
450 2.272
460 2.332
470 2.352
480 2.509
490 2.44
500 2.413
510 2.441
520 2.333
530 2.494
540 2.472
550 2.586
560 2.452
570 2.539
580 2.586
590 2.424
600 2.616
610 2.584
620 2.587
630 2.603
640 2.572
650 2.497
660 2.514
670 2.527
680 2.483
690 2.498
700 2.488
710 2.413
720 2.356
730 2.298
740 2.258
750 2.263
