# Top-of-atmosphere (TOA) lunar irradiance from Miller and Turner (2009) by 10 nm increments
# First column wavelength (nm), second column TOA irradiance# Phase angle = 180
# Units = mW/m^2-micrometer

300 0.6344
310 0.6306
320 0.9532
330 1.546
340 1.388
350 1.278
360 1.682
370 2.023
380 1.759
390 2.073
400 2.98
410 3.103
420 3.221
430 2.836
440 3.452
450 4.095
460 4.197
470 4.228
480 4.503
490 4.374
500 4.318
510 4.363
520 4.163
530 4.445
540 4.4
550 4.596
560 4.351
570 4.5
580 4.576
590 4.284
600 4.617
610 4.553
620 4.553
630 4.574
640 4.514
650 4.375
660 4.399
670 4.416
680 4.333
690 4.352
700 4.329
710 4.192
720 4.088
730 3.983
740 3.907
750 3.91
