# Top-of-atmosphere (TOA) lunar irradiance from Miller and Turner (2009) by 10 nm increments
# First column wavelength (nm), second column TOA irradiance# Phase angle = 144
# Units = mW/m^2-micrometer

300 0.2447
310 0.2437
320 0.3692
330 0.6001
340 0.5401
350 0.4984
360 0.6575
370 0.7924
380 0.6903
390 0.8157
400 1.175
410 1.226
420 1.276
430 1.125
440 1.373
450 1.632
460 1.677
470 1.693
480 1.807
490 1.759
500 1.741
510 1.762
520 1.685
530 1.804
540 1.789
550 1.873
560 1.777
570 1.842
580 1.877
590 1.762
600 1.902
610 1.88
620 1.885
630 1.897
640 1.876
650 1.823
660 1.837
670 1.848
680 1.817
690 1.829
700 1.824
710 1.77
720 1.73
730 1.689
740 1.661
750 1.665
