# Top-of-atmosphere (TOA) lunar irradiance from Miller and Turner (2009) by 10 nm increments
# First column wavelength (nm), second column TOA irradiance# Phase angle = 110
# Units = mW/m^2-micrometer

300 0.1055
310 0.1051
320 0.1594
330 0.2592
340 0.2335
350 0.2156
360 0.2847
370 0.3433
380 0.2993
390 0.354
400 0.5102
410 0.5329
420 0.5548
430 0.4898
440 0.598
450 0.7115
460 0.7315
470 0.739
480 0.7894
490 0.7691
500 0.7615
510 0.7717
520 0.7385
530 0.7909
540 0.7851
550 0.8225
560 0.781
570 0.81
580 0.8262
590 0.7758
600 0.8385
610 0.8294
620 0.8319
630 0.838
640 0.8295
650 0.8065
660 0.8133
670 0.8188
680 0.8058
690 0.8117
700 0.8098
710 0.7865
720 0.7693
730 0.7516
740 0.7396
750 0.7422
