# Top-of-atmosphere (TOA) lunar irradiance from Miller and Turner (2009) by 10 nm increments
# First column wavelength (nm), second column TOA irradiance# Phase angle = 177
# Units = mW/m^2-micrometer

300 0.5874
310 0.5839
320 0.8827
330 1.432
340 1.286
350 1.184
360 1.559
370 1.875
380 1.63
390 1.922
400 2.763
410 2.878
420 2.988
430 2.63
440 3.202
450 3.799
460 3.895
470 3.925
480 4.18
490 4.061
500 4.01
510 4.052
520 3.867
530 4.13
540 4.088
550 4.271
560 4.044
570 4.183
580 4.254
590 3.984
600 4.293
610 4.235
620 4.236
630 4.255
640 4.2
650 4.072
660 4.095
670 4.111
680 4.034
690 4.053
700 4.032
710 3.905
720 3.809
730 3.711
740 3.641
750 3.644
