# Top-of-atmosphere (TOA) lunar irradiance from Miller and Turner (2009)
# First column wavelength (nm), second column TOA irradiance# Lunar phase angle: 128
# Irradiance units: mW/m^2-micrometer

300 0.1649
301 0.1226
302 0.1544
303 0.1475
304 0.2086
305 0.1943
306 0.1983
307 0.1835
308 0.2134
309 0.2152
310 0.1643
311 0.2183
312 0.259
313 0.2249
314 0.244
315 0.2242
316 0.2309
317 0.211
318 0.2938
319 0.226
320 0.2491
321 0.3077
322 0.2441
323 0.2558
324 0.2386
325 0.2859
326 0.3202
327 0.3651
328 0.3544
329 0.3295
330 0.405
331 0.374
332 0.3703
333 0.3593
334 0.3443
335 0.3682
336 0.3754
337 0.2972
338 0.3262
339 0.3502
340 0.3647
341 0.4029
342 0.3533
343 0.3931
344 0.3951
345 0.2851
346 0.389
347 0.3611
348 0.3582
349 0.3735
350 0.3367
351 0.445
352 0.3972
353 0.3558
354 0.4294
355 0.4569
356 0.4284
357 0.383
358 0.3479
359 0.2598
360 0.4445
361 0.4192
362 0.3716
363 0.4249
364 0.4013
365 0.433
366 0.4971
367 0.5292
368 0.5104
369 0.4554
370 0.5359
371 0.4752
372 0.5497
373 0.4542
374 0.3922
375 0.4002
376 0.481
377 0.4721
378 0.569
379 0.611
380 0.4672
381 0.5471
382 0.4973
383 0.3568
384 0.2973
385 0.4312
386 0.4538
387 0.4596
388 0.4491
389 0.4319
390 0.5523
391 0.5652
392 0.6582
393 0.4978
394 0.2168
395 0.502
396 0.6495
397 0.3453
398 0.3882
399 0.74
400 0.796
401 0.7998
402 0.8702
403 0.884
404 0.8658
405 0.8462
406 0.8227
407 0.8013
408 0.8126
409 0.8241
410 0.8312
411 0.7701
412 0.8016
413 0.8333
414 0.8651
415 0.8685
416 0.8707
417 0.882
418 0.8646
419 0.8643
420 0.8651
421 0.8865
422 0.9037
423 0.8729
424 0.8624
425 0.8836
426 0.8775
427 0.8739
428 0.8417
429 0.8413
430 0.7637
431 0.6378
432 0.7904
433 0.8737
434 0.8625
435 0.8448
436 0.9082
437 0.9595
438 0.9302
439 0.8945
440 0.9322
441 0.9732
442 1.01
443 1.042
444 1.045
445 1.046
446 1.029
447 1.023
448 1.083
449 1.097
450 1.109
451 1.159
452 1.165
453 1.111
454 1.083
455 1.133
456 1.142
457 1.173
458 1.175
459 1.146
460 1.14
461 1.158
462 1.177
463 1.189
464 1.177
465 1.151
466 1.152
467 1.144
468 1.138
469 1.159
470 1.151
471 1.135
472 1.164
473 1.201
474 1.186
475 1.213
476 1.213
477 1.197
478 1.229
479 1.23
480 1.23
481 1.224
482 1.234
483 1.224
484 1.209
485 1.195
486 1.088
487 1.029
488 1.114
489 1.15
490 1.198
491 1.216
492 1.174
493 1.172
494 1.187
495 1.216
496 1.218
497 1.214
498 1.206
499 1.187
500 1.186
501 1.168
502 1.145
503 1.17
504 1.193
505 1.19
506 1.234
507 1.254
508 1.237
509 1.22
510 1.201
511 1.189
512 1.213
513 1.201
514 1.173
515 1.159
516 1.178
517 1.098
518 1.033
519 1.073
520 1.149
521 1.172
522 1.194
523 1.171
524 1.193
525 1.23
526 1.217
527 1.116
528 1.143
529 1.218
530 1.231
531 1.249
532 1.253
533 1.24
534 1.224
535 1.228
536 1.266
537 1.238
538 1.239
539 1.249
540 1.221
541 1.198
542 1.225
543 1.241
544 1.252
545 1.264
546 1.268
547 1.27
548 1.256
549 1.263
550 1.279
551 1.274
552 1.28
553 1.279
554 1.276
555 1.29
556 1.285
557 1.259
558 1.245
559 1.23
560 1.214
561 1.245
562 1.258
563 1.244
564 1.251
565 1.256
566 1.246
567 1.248
568 1.271
569 1.262
570 1.259
571 1.248
572 1.251
573 1.301
574 1.308
575 1.298
576 1.28
577 1.286
578 1.29
579 1.273
580 1.284
581 1.297
582 1.304
583 1.318
584 1.321
585 1.312
586 1.29
587 1.288
588 1.307
589 1.258
590 1.206
591 1.265
592 1.296
593 1.3
594 1.299
595 1.305
596 1.3
597 1.31
598 1.31
599 1.299
600 1.303
601 1.296
602 1.282
603 1.289
604 1.313
605 1.319
606 1.313
607 1.31
608 1.305
609 1.294
610 1.288
611 1.29
612 1.293
613 1.289
614 1.274
615 1.274
616 1.265
617 1.242
618 1.263
619 1.283
620 1.292
621 1.305
622 1.297
623 1.29
624 1.284
625 1.274
626 1.27
627 1.296
628 1.314
629 1.315
630 1.301
631 1.296
632 1.279
633 1.296
634 1.29
635 1.295
636 1.296
637 1.294
638 1.313
639 1.313
640 1.288
641 1.279
642 1.275
643 1.289
644 1.286
645 1.289
646 1.279
647 1.282
648 1.292
649 1.289
650 1.252
651 1.297
652 1.305
653 1.287
654 1.278
655 1.258
656 1.176
657 1.082
658 1.198
659 1.257
660 1.262
661 1.274
662 1.282
663 1.279
664 1.264
665 1.269
666 1.273
667 1.266
668 1.264
669 1.273
670 1.271
671 1.267
672 1.261
673 1.258
674 1.257
675 1.255
676 1.254
677 1.253
678 1.252
679 1.251
680 1.25
681 1.249
682 1.249
683 1.249
684 1.248
685 1.248
686 1.249
687 1.249
688 1.249
689 1.252
690 1.259
691 1.262
692 1.256
693 1.252
694 1.255
695 1.249
696 1.248
697 1.252
698 1.236
699 1.252
700 1.256
701 1.239
702 1.232
703 1.238
704 1.244
705 1.258
706 1.25
707 1.236
708 1.238
709 1.227
710 1.219
711 1.225
712 1.209
713 1.204
714 1.208
715 1.206
716 1.202
717 1.208
718 1.207
719 1.191
720 1.193
721 1.195
722 1.196
723 1.195
724 1.201
725 1.198
726 1.189
727 1.193
728 1.191
729 1.169
730 1.165
731 1.187
732 1.185
733 1.184
734 1.185
735 1.186
736 1.174
737 1.171
738 1.17
739 1.144
740 1.146
741 1.14
742 1.132
743 1.15
744 1.167
745 1.156
746 1.168
747 1.164
748 1.169
749 1.162
750 1.15
