# Top-of-atmosphere (TOA) lunar irradiance from Miller and Turner (2009) by 10 nm increments
# First column wavelength (nm), second column TOA irradiance# Phase angle = 140
# Units = mW/m^2-micrometer

300 0.22
310 0.2192
320 0.3321
330 0.54
340 0.4861
350 0.4487
360 0.592
370 0.7137
380 0.6219
390 0.7351
400 1.059
410 1.106
420 1.15
430 1.015
440 1.239
450 1.473
460 1.514
470 1.529
480 1.632
490 1.589
500 1.573
510 1.593
520 1.524
530 1.631
540 1.618
550 1.695
560 1.608
570 1.667
580 1.7
590 1.595
600 1.723
610 1.704
620 1.708
630 1.72
640 1.702
650 1.653
660 1.667
670 1.677
680 1.65
690 1.661
700 1.656
710 1.608
720 1.572
730 1.535
740 1.51
750 1.514
