# Top-of-atmosphere (TOA) lunar irradiance from Miller and Turner (2009) by 10 nm increments
# First column wavelength (nm), second column TOA irradiance# Phase angle = 172
# Units = mW/m^2-micrometer

300 0.5139
310 0.511
320 0.7728
330 1.254
340 1.126
350 1.038
360 1.366
370 1.644
380 1.43
390 1.686
400 2.425
410 2.526
420 2.623
430 2.31
440 2.814
450 3.34
460 3.425
470 3.452
480 3.677
490 3.574
500 3.53
510 3.568
520 3.406
530 3.639
540 3.603
550 3.765
560 3.567
570 3.69
580 3.754
590 3.517
600 3.791
610 3.741
620 3.743
630 3.761
640 3.713
650 3.601
660 3.623
670 3.638
680 3.572
690 3.589
700 3.571
710 3.46
720 3.376
730 3.29
740 3.229
750 3.233
