# Top-of-atmosphere (TOA) lunar irradiance from Miller and Turner (2009)
# First column wavelength (nm), second column TOA irradiance# Lunar phase angle: 134
# Irradiance units: mW/m^2-micrometer

300 0.1904
301 0.1416
302 0.1783
303 0.1703
304 0.2409
305 0.2244
306 0.229
307 0.2119
308 0.2464
309 0.2485
310 0.1897
311 0.2521
312 0.299
313 0.2597
314 0.2817
315 0.2589
316 0.2665
317 0.2436
318 0.3392
319 0.2609
320 0.2875
321 0.3552
322 0.2818
323 0.2953
324 0.2754
325 0.33
326 0.3697
327 0.4214
328 0.4091
329 0.3804
330 0.4675
331 0.4317
332 0.4275
333 0.4148
334 0.3974
335 0.4251
336 0.4333
337 0.343
338 0.3766
339 0.4042
340 0.421
341 0.465
342 0.4077
343 0.4536
344 0.456
345 0.329
346 0.449
347 0.4167
348 0.4134
349 0.4311
350 0.3886
351 0.5136
352 0.4583
353 0.4105
354 0.4955
355 0.5272
356 0.4944
357 0.442
358 0.4014
359 0.2997
360 0.5129
361 0.4838
362 0.4288
363 0.4903
364 0.463
365 0.4997
366 0.5735
367 0.6106
368 0.5889
369 0.5254
370 0.6183
371 0.5482
372 0.6342
373 0.524
374 0.4524
375 0.4616
376 0.5549
377 0.5446
378 0.6565
379 0.7048
380 0.5389
381 0.6311
382 0.5737
383 0.4115
384 0.343
385 0.4975
386 0.5235
387 0.5302
388 0.518
389 0.4982
390 0.6371
391 0.652
392 0.7591
393 0.5741
394 0.2501
395 0.579
396 0.7491
397 0.3982
398 0.4478
399 0.8535
400 0.9181
401 0.9224
402 1.004
403 1.019
404 0.9985
405 0.9759
406 0.9487
407 0.9241
408 0.9371
409 0.9503
410 0.9585
411 0.8881
412 0.9244
413 0.9608
414 0.9975
415 1.001
416 1.004
417 1.017
418 0.9969
419 0.9965
420 0.9975
421 1.022
422 1.042
423 1.006
424 0.9943
425 1.019
426 1.012
427 1.008
428 0.9703
429 0.97
430 0.8804
431 0.7352
432 0.9112
433 1.007
434 0.9943
435 0.9738
436 1.047
437 1.106
438 1.072
439 1.031
440 1.075
441 1.122
442 1.165
443 1.201
444 1.205
445 1.206
446 1.186
447 1.179
448 1.249
449 1.265
450 1.278
451 1.336
452 1.343
453 1.28
454 1.248
455 1.306
456 1.316
457 1.352
458 1.354
459 1.321
460 1.314
461 1.335
462 1.357
463 1.37
464 1.356
465 1.327
466 1.327
467 1.318
468 1.311
469 1.336
470 1.327
471 1.308
472 1.341
473 1.384
474 1.366
475 1.397
476 1.397
477 1.379
478 1.416
479 1.417
480 1.417
481 1.411
482 1.422
483 1.41
484 1.393
485 1.377
486 1.254
487 1.185
488 1.284
489 1.325
490 1.38
491 1.4
492 1.352
493 1.35
494 1.367
495 1.401
496 1.403
497 1.399
498 1.389
499 1.367
500 1.366
501 1.345
502 1.319
503 1.348
504 1.375
505 1.37
506 1.422
507 1.445
508 1.425
509 1.405
510 1.383
511 1.369
512 1.397
513 1.383
514 1.351
515 1.335
516 1.356
517 1.264
518 1.189
519 1.235
520 1.323
521 1.349
522 1.375
523 1.348
524 1.373
525 1.416
526 1.402
527 1.284
528 1.316
529 1.402
530 1.417
531 1.438
532 1.442
533 1.428
534 1.409
535 1.414
536 1.457
537 1.426
538 1.427
539 1.437
540 1.406
541 1.379
542 1.411
543 1.428
544 1.441
545 1.455
546 1.46
547 1.462
548 1.446
549 1.454
550 1.473
551 1.466
552 1.473
553 1.472
554 1.469
555 1.485
556 1.479
557 1.449
558 1.433
559 1.416
560 1.398
561 1.433
562 1.447
563 1.432
564 1.44
565 1.445
566 1.434
567 1.436
568 1.462
569 1.452
570 1.449
571 1.436
572 1.44
573 1.497
574 1.505
575 1.494
576 1.473
577 1.48
578 1.484
579 1.465
580 1.478
581 1.492
582 1.501
583 1.517
584 1.52
585 1.51
586 1.484
587 1.482
588 1.504
589 1.448
590 1.387
591 1.455
592 1.491
593 1.496
594 1.495
595 1.501
596 1.495
597 1.507
598 1.506
599 1.494
600 1.499
601 1.491
602 1.474
603 1.482
604 1.511
605 1.518
606 1.511
607 1.506
608 1.502
609 1.489
610 1.482
611 1.484
612 1.488
613 1.482
614 1.465
615 1.465
616 1.455
617 1.429
618 1.452
619 1.475
620 1.486
621 1.501
622 1.492
623 1.484
624 1.477
625 1.465
626 1.461
627 1.491
628 1.51
629 1.512
630 1.496
631 1.491
632 1.471
633 1.49
634 1.483
635 1.489
636 1.49
637 1.487
638 1.509
639 1.51
640 1.481
641 1.47
642 1.465
643 1.482
644 1.478
645 1.482
646 1.47
647 1.473
648 1.485
649 1.482
650 1.439
651 1.491
652 1.5
653 1.479
654 1.469
655 1.447
656 1.352
657 1.243
658 1.377
659 1.445
660 1.451
661 1.464
662 1.474
663 1.47
664 1.453
665 1.458
666 1.463
667 1.456
668 1.453
669 1.463
670 1.46
671 1.456
672 1.45
673 1.446
674 1.444
675 1.443
676 1.441
677 1.44
678 1.438
679 1.437
680 1.436
681 1.436
682 1.435
683 1.435
684 1.435
685 1.434
686 1.435
687 1.435
688 1.435
689 1.438
690 1.447
691 1.45
692 1.443
693 1.439
694 1.442
695 1.434
696 1.434
697 1.439
698 1.42
699 1.438
700 1.443
701 1.424
702 1.415
703 1.422
704 1.429
705 1.445
706 1.436
707 1.419
708 1.422
709 1.409
710 1.401
711 1.407
712 1.388
713 1.384
714 1.387
715 1.385
716 1.38
717 1.387
718 1.386
719 1.368
720 1.37
721 1.373
722 1.374
723 1.373
724 1.379
725 1.376
726 1.365
727 1.37
728 1.368
729 1.343
730 1.338
731 1.363
732 1.36
733 1.36
734 1.361
735 1.362
736 1.348
737 1.344
738 1.343
739 1.313
740 1.316
741 1.309
742 1.3
743 1.32
744 1.34
745 1.327
746 1.341
747 1.337
748 1.342
749 1.335
750 1.32
