# Top-of-atmosphere (TOA) lunar irradiance from Miller and Turner (2009)
# First column wavelength (nm), second column TOA irradiance# Lunar phase angle: 140
# Irradiance units: mW/m^2-micrometer

300 0.22
301 0.1636
302 0.206
303 0.1968
304 0.2783
305 0.2592
306 0.2646
307 0.2448
308 0.2846
309 0.2871
310 0.2192
311 0.2912
312 0.3455
313 0.3
314 0.3255
315 0.2991
316 0.3079
317 0.2814
318 0.3919
319 0.3014
320 0.3321
321 0.4103
322 0.3255
323 0.3411
324 0.3181
325 0.3812
326 0.427
327 0.4867
328 0.4726
329 0.4393
330 0.54
331 0.4985
332 0.4937
333 0.479
334 0.4589
335 0.4909
336 0.5004
337 0.3961
338 0.4348
339 0.4668
340 0.4861
341 0.5369
342 0.4708
343 0.5238
344 0.5265
345 0.3799
346 0.5184
347 0.4811
348 0.4773
349 0.4977
350 0.4487
351 0.5929
352 0.5292
353 0.474
354 0.572
355 0.6087
356 0.5707
357 0.5102
358 0.4634
359 0.346
360 0.592
361 0.5584
362 0.4949
363 0.5659
364 0.5344
365 0.5767
366 0.662
367 0.7048
368 0.6797
369 0.6065
370 0.7137
371 0.6328
372 0.732
373 0.6047
374 0.5221
375 0.5328
376 0.6404
377 0.6285
378 0.7576
379 0.8134
380 0.6219
381 0.7283
382 0.662
383 0.4749
384 0.3958
385 0.574
386 0.6041
387 0.6118
388 0.5977
389 0.5748
390 0.7351
391 0.7522
392 0.8759
393 0.6624
394 0.2885
395 0.668
396 0.8643
397 0.4594
398 0.5166
399 0.9846
400 1.059
401 1.064
402 1.158
403 1.176
404 1.152
405 1.126
406 1.094
407 1.066
408 1.081
409 1.096
410 1.106
411 1.024
412 1.066
413 1.108
414 1.151
415 1.155
416 1.158
417 1.173
418 1.15
419 1.149
420 1.15
421 1.179
422 1.202
423 1.161
424 1.147
425 1.175
426 1.167
427 1.162
428 1.119
429 1.118
430 1.015
431 0.8477
432 1.051
433 1.161
434 1.146
435 1.123
436 1.207
437 1.275
438 1.236
439 1.189
440 1.239
441 1.293
442 1.343
443 1.384
444 1.389
445 1.39
446 1.368
447 1.359
448 1.439
449 1.458
450 1.473
451 1.54
452 1.548
453 1.476
454 1.439
455 1.506
456 1.517
457 1.559
458 1.56
459 1.522
460 1.514
461 1.538
462 1.563
463 1.579
464 1.562
465 1.529
466 1.53
467 1.519
468 1.511
469 1.539
470 1.529
471 1.507
472 1.546
473 1.594
474 1.575
475 1.61
476 1.61
477 1.589
478 1.632
479 1.632
480 1.632
481 1.625
482 1.638
483 1.624
484 1.605
485 1.586
486 1.444
487 1.365
488 1.479
489 1.526
490 1.589
491 1.613
492 1.558
493 1.555
494 1.575
495 1.614
496 1.616
497 1.611
498 1.599
499 1.574
500 1.573
501 1.549
502 1.519
503 1.553
504 1.583
505 1.578
506 1.637
507 1.664
508 1.641
509 1.617
510 1.593
511 1.577
512 1.609
513 1.593
514 1.556
515 1.537
516 1.562
517 1.455
518 1.37
519 1.422
520 1.524
521 1.553
522 1.583
523 1.553
524 1.581
525 1.63
526 1.614
527 1.479
528 1.515
529 1.614
530 1.631
531 1.656
532 1.66
533 1.643
534 1.622
535 1.628
536 1.678
537 1.641
538 1.642
539 1.654
540 1.618
541 1.588
542 1.624
543 1.644
544 1.659
545 1.675
546 1.68
547 1.682
548 1.664
549 1.673
550 1.695
551 1.687
552 1.695
553 1.694
554 1.69
555 1.709
556 1.701
557 1.668
558 1.649
559 1.629
560 1.608
561 1.649
562 1.665
563 1.648
564 1.657
565 1.663
566 1.649
567 1.652
568 1.682
569 1.67
570 1.667
571 1.652
572 1.656
573 1.722
574 1.732
575 1.718
576 1.694
577 1.703
578 1.707
579 1.686
580 1.7
581 1.717
582 1.726
583 1.745
584 1.748
585 1.737
586 1.707
587 1.705
588 1.73
589 1.665
590 1.595
591 1.674
592 1.715
593 1.72
594 1.719
595 1.726
596 1.72
597 1.733
598 1.732
599 1.718
600 1.723
601 1.714
602 1.695
603 1.704
604 1.737
605 1.745
606 1.737
607 1.732
608 1.726
609 1.712
610 1.704
611 1.706
612 1.71
613 1.704
614 1.684
615 1.684
616 1.672
617 1.643
618 1.67
619 1.696
620 1.708
621 1.725
622 1.715
623 1.705
624 1.697
625 1.684
626 1.679
627 1.714
628 1.736
629 1.738
630 1.72
631 1.713
632 1.69
633 1.713
634 1.705
635 1.712
636 1.712
637 1.709
638 1.734
639 1.735
640 1.702
641 1.69
642 1.684
643 1.703
644 1.699
645 1.703
646 1.689
647 1.693
648 1.706
649 1.703
650 1.653
651 1.713
652 1.723
653 1.7
654 1.687
655 1.662
656 1.553
657 1.429
658 1.582
659 1.66
660 1.667
661 1.682
662 1.693
663 1.688
664 1.669
665 1.675
666 1.68
667 1.672
668 1.669
669 1.68
670 1.677
671 1.672
672 1.665
673 1.661
674 1.659
675 1.657
676 1.655
677 1.653
678 1.652
679 1.651
680 1.65
681 1.649
682 1.648
683 1.648
684 1.647
685 1.647
686 1.647
687 1.648
688 1.648
689 1.651
690 1.661
691 1.665
692 1.657
693 1.652
694 1.655
695 1.647
696 1.646
697 1.652
698 1.63
699 1.651
700 1.656
701 1.634
702 1.625
703 1.632
704 1.641
705 1.658
706 1.648
707 1.629
708 1.632
709 1.618
710 1.608
711 1.615
712 1.593
713 1.588
714 1.592
715 1.589
716 1.584
717 1.592
718 1.591
719 1.571
720 1.572
721 1.575
722 1.577
723 1.575
724 1.583
725 1.579
726 1.567
727 1.572
728 1.569
729 1.541
730 1.535
731 1.564
732 1.561
733 1.56
734 1.561
735 1.562
736 1.546
737 1.542
738 1.541
739 1.507
740 1.51
741 1.502
742 1.491
743 1.514
744 1.537
745 1.522
746 1.539
747 1.533
748 1.539
749 1.531
750 1.514
