# Top-of-atmosphere (TOA) lunar irradiance from Miller and Turner (2009) by 10 nm increments
# First column wavelength (nm), second column TOA irradiance# Phase angle = 132
# Units = mW/m^2-micrometer

300 0.1814
310 0.1808
320 0.274
330 0.4456
340 0.4013
350 0.3704
360 0.4889
370 0.5895
380 0.5138
390 0.6074
400 0.8754
410 0.914
420 0.9512
430 0.8396
440 1.025
450 1.219
460 1.253
470 1.265
480 1.351
490 1.316
500 1.303
510 1.32
520 1.263
530 1.352
540 1.342
550 1.405
560 1.334
570 1.383
580 1.41
590 1.324
600 1.43
610 1.415
620 1.418
630 1.429
640 1.414
650 1.374
660 1.385
670 1.394
680 1.372
690 1.381
700 1.378
710 1.338
720 1.308
730 1.278
740 1.257
750 1.261
