# Top-of-atmosphere (TOA) lunar irradiance from Miller and Turner (2009)
# First column wavelength (nm), second column TOA irradiance# Lunar phase angle: 139
# Irradiance units: mW/m^2-micrometer

300 0.2148
301 0.1597
302 0.2011
303 0.1921
304 0.2717
305 0.253
306 0.2583
307 0.2389
308 0.2779
309 0.2803
310 0.214
311 0.2843
312 0.3372
313 0.2929
314 0.3177
315 0.2919
316 0.3006
317 0.2747
318 0.3826
319 0.2942
320 0.3243
321 0.4006
322 0.3178
323 0.333
324 0.3105
325 0.3722
326 0.4168
327 0.4752
328 0.4613
329 0.4289
330 0.5272
331 0.4867
332 0.482
333 0.4676
334 0.448
335 0.4792
336 0.4885
337 0.3867
338 0.4245
339 0.4557
340 0.4746
341 0.5242
342 0.4596
343 0.5114
344 0.5141
345 0.3709
346 0.5061
347 0.4698
348 0.466
349 0.4859
350 0.4381
351 0.5789
352 0.5166
353 0.4628
354 0.5585
355 0.5943
356 0.5572
357 0.4982
358 0.4525
359 0.3378
360 0.578
361 0.5452
362 0.4832
363 0.5525
364 0.5218
365 0.5631
366 0.6464
367 0.6881
368 0.6637
369 0.5921
370 0.6968
371 0.6178
372 0.7147
373 0.5905
374 0.5098
375 0.5202
376 0.6253
377 0.6137
378 0.7397
379 0.7942
380 0.6073
381 0.7111
382 0.6464
383 0.4637
384 0.3864
385 0.5605
386 0.5898
387 0.5974
388 0.5836
389 0.5613
390 0.7177
391 0.7345
392 0.8552
393 0.6468
394 0.2817
395 0.6523
396 0.8439
397 0.4486
398 0.5044
399 0.9614
400 1.034
401 1.039
402 1.13
403 1.148
404 1.125
405 1.099
406 1.069
407 1.041
408 1.055
409 1.07
410 1.08
411 1
412 1.041
413 1.082
414 1.123
415 1.128
416 1.131
417 1.145
418 1.123
419 1.122
420 1.123
421 1.151
422 1.173
423 1.133
424 1.12
425 1.147
426 1.139
427 1.135
428 1.093
429 1.092
430 0.9913
431 0.8279
432 1.026
433 1.134
434 1.12
435 1.096
436 1.179
437 1.245
438 1.207
439 1.161
440 1.21
441 1.263
442 1.311
443 1.352
444 1.356
445 1.358
446 1.335
447 1.327
448 1.406
449 1.424
450 1.439
451 1.504
452 1.512
453 1.441
454 1.405
455 1.47
456 1.481
457 1.522
458 1.524
459 1.487
460 1.478
461 1.502
462 1.527
463 1.542
464 1.526
465 1.493
466 1.494
467 1.483
468 1.476
469 1.503
470 1.493
471 1.472
472 1.51
473 1.557
474 1.538
475 1.572
476 1.572
477 1.552
478 1.594
479 1.594
480 1.594
481 1.587
482 1.6
483 1.587
484 1.567
485 1.549
486 1.411
487 1.333
488 1.444
489 1.49
490 1.552
491 1.576
492 1.521
493 1.519
494 1.538
495 1.576
496 1.578
497 1.573
498 1.562
499 1.538
500 1.536
501 1.513
502 1.484
503 1.516
504 1.546
505 1.541
506 1.599
507 1.625
508 1.603
509 1.58
510 1.556
511 1.54
512 1.572
513 1.556
514 1.52
515 1.502
516 1.525
517 1.421
518 1.338
519 1.389
520 1.488
521 1.517
522 1.546
523 1.516
524 1.544
525 1.593
526 1.576
527 1.444
528 1.48
529 1.576
530 1.593
531 1.617
532 1.622
533 1.605
534 1.584
535 1.59
536 1.639
537 1.603
538 1.604
539 1.616
540 1.581
541 1.551
542 1.586
543 1.606
544 1.621
545 1.636
546 1.642
547 1.643
548 1.625
549 1.635
550 1.655
551 1.648
552 1.656
553 1.654
554 1.651
555 1.669
556 1.662
557 1.629
558 1.611
559 1.591
560 1.571
561 1.611
562 1.627
563 1.609
564 1.619
565 1.624
566 1.611
567 1.614
568 1.643
569 1.632
570 1.629
571 1.614
572 1.618
573 1.682
574 1.692
575 1.679
576 1.655
577 1.663
578 1.668
579 1.647
580 1.661
581 1.677
582 1.686
583 1.705
584 1.708
585 1.697
586 1.667
587 1.666
588 1.69
589 1.626
590 1.559
591 1.635
592 1.675
593 1.68
594 1.679
595 1.686
596 1.68
597 1.693
598 1.692
599 1.678
600 1.684
601 1.675
602 1.656
603 1.665
604 1.697
605 1.705
606 1.697
607 1.692
608 1.687
609 1.672
610 1.665
611 1.667
612 1.671
613 1.665
614 1.645
615 1.645
616 1.634
617 1.605
618 1.631
619 1.657
620 1.669
621 1.685
622 1.675
623 1.666
624 1.658
625 1.645
626 1.64
627 1.674
628 1.696
629 1.698
630 1.68
631 1.674
632 1.651
633 1.673
634 1.665
635 1.672
636 1.673
637 1.67
638 1.695
639 1.695
640 1.663
641 1.651
642 1.645
643 1.664
644 1.66
645 1.664
646 1.651
647 1.654
648 1.667
649 1.664
650 1.616
651 1.674
652 1.684
653 1.661
654 1.649
655 1.624
656 1.518
657 1.396
658 1.546
659 1.622
660 1.629
661 1.644
662 1.654
663 1.65
664 1.631
665 1.637
666 1.642
667 1.634
668 1.63
669 1.642
670 1.639
671 1.634
672 1.627
673 1.623
674 1.621
675 1.619
676 1.617
677 1.616
678 1.614
679 1.613
680 1.612
681 1.611
682 1.611
683 1.61
684 1.61
685 1.61
686 1.61
687 1.61
688 1.61
689 1.614
690 1.623
691 1.627
692 1.619
693 1.614
694 1.618
695 1.609
696 1.609
697 1.614
698 1.593
699 1.613
700 1.618
701 1.597
702 1.588
703 1.595
704 1.603
705 1.621
706 1.611
707 1.592
708 1.595
709 1.581
710 1.571
711 1.578
712 1.557
713 1.552
714 1.556
715 1.553
716 1.548
717 1.556
718 1.554
719 1.535
720 1.536
721 1.54
722 1.541
723 1.54
724 1.547
725 1.544
726 1.531
727 1.536
728 1.534
729 1.506
730 1.5
731 1.528
732 1.525
733 1.525
734 1.526
735 1.527
736 1.511
737 1.507
738 1.506
739 1.473
740 1.475
741 1.468
742 1.457
743 1.48
744 1.502
745 1.488
746 1.504
747 1.499
748 1.504
749 1.496
750 1.48
