# Top-of-atmosphere (TOA) lunar irradiance from Miller and Turner (2009)
# First column wavelength (nm), second column TOA irradiance# Lunar phase angle: 150
# Irradiance units: mW/m^2-micrometer

300 0.287
301 0.2134
302 0.2687
303 0.2567
304 0.363
305 0.3381
306 0.3451
307 0.3192
308 0.3712
309 0.3743
310 0.2858
311 0.3796
312 0.4503
313 0.3911
314 0.4242
315 0.3898
316 0.4013
317 0.3668
318 0.5107
319 0.3927
320 0.4328
321 0.5346
322 0.424
323 0.4444
324 0.4144
325 0.4965
326 0.5561
327 0.6339
328 0.6154
329 0.5721
330 0.7031
331 0.6491
332 0.6427
333 0.6236
334 0.5974
335 0.639
336 0.6513
337 0.5155
338 0.5659
339 0.6075
340 0.6326
341 0.6987
342 0.6126
343 0.6815
344 0.685
345 0.4942
346 0.6744
347 0.6259
348 0.6209
349 0.6473
350 0.5835
351 0.7711
352 0.6881
353 0.6163
354 0.7437
355 0.7913
356 0.742
357 0.6633
358 0.6024
359 0.4497
360 0.7695
361 0.7257
362 0.6432
363 0.7354
364 0.6944
365 0.7493
366 0.8601
367 0.9156
368 0.883
369 0.7878
370 0.927
371 0.8218
372 0.9506
373 0.7853
374 0.678
375 0.6918
376 0.8315
377 0.816
378 0.9835
379 1.056
380 0.8073
381 0.9453
382 0.8593
383 0.6163
384 0.5136
385 0.7449
386 0.7838
387 0.7938
388 0.7754
389 0.7458
390 0.9536
391 0.9758
392 1.136
393 0.8591
394 0.3742
395 0.8664
396 1.121
397 0.5958
398 0.6698
399 1.277
400 1.373
401 1.379
402 1.501
403 1.524
404 1.493
405 1.459
406 1.418
407 1.381
408 1.401
409 1.42
410 1.432
411 1.327
412 1.381
413 1.436
414 1.49
415 1.496
416 1.5
417 1.519
418 1.489
419 1.488
420 1.49
421 1.526
422 1.556
423 1.502
424 1.484
425 1.521
426 1.51
427 1.504
428 1.448
429 1.447
430 1.314
431 1.097
432 1.359
433 1.502
434 1.483
435 1.452
436 1.561
437 1.649
438 1.599
439 1.537
440 1.602
441 1.672
442 1.736
443 1.79
444 1.795
445 1.797
446 1.768
447 1.757
448 1.861
449 1.884
450 1.904
451 1.99
452 2
453 1.907
454 1.859
455 1.945
456 1.959
457 2.013
458 2.015
459 1.967
460 1.955
461 1.987
462 2.019
463 2.039
464 2.018
465 1.974
466 1.975
467 1.96
468 1.951
469 1.987
470 1.973
471 1.946
472 1.995
473 2.057
474 2.032
475 2.078
476 2.077
477 2.05
478 2.105
479 2.106
480 2.105
481 2.096
482 2.113
483 2.095
484 2.069
485 2.046
486 1.862
487 1.76
488 1.906
489 1.967
490 2.049
491 2.08
492 2.008
493 2.005
494 2.03
495 2.08
496 2.082
497 2.076
498 2.061
499 2.028
500 2.026
501 1.995
502 1.957
503 2
504 2.039
505 2.032
506 2.108
507 2.143
508 2.113
509 2.083
510 2.051
511 2.03
512 2.072
513 2.051
514 2.003
515 1.979
516 2.01
517 1.873
518 1.762
519 1.831
520 1.961
521 1.999
522 2.037
523 1.997
524 2.034
525 2.097
526 2.076
527 1.902
528 1.949
529 2.075
530 2.098
531 2.129
532 2.135
533 2.113
534 2.085
535 2.093
536 2.156
537 2.109
538 2.111
539 2.126
540 2.08
541 2.04
542 2.086
543 2.112
544 2.132
545 2.152
546 2.159
547 2.161
548 2.137
549 2.149
550 2.176
551 2.167
552 2.176
553 2.175
554 2.17
555 2.194
556 2.184
557 2.141
558 2.117
559 2.091
560 2.064
561 2.116
562 2.137
563 2.114
564 2.126
565 2.133
566 2.116
567 2.119
568 2.158
569 2.143
570 2.139
571 2.119
572 2.124
573 2.208
574 2.221
575 2.203
576 2.173
577 2.183
578 2.189
579 2.161
580 2.179
581 2.2
582 2.212
583 2.236
584 2.24
585 2.225
586 2.187
587 2.185
588 2.216
589 2.133
590 2.044
591 2.144
592 2.196
593 2.203
594 2.201
595 2.21
596 2.202
597 2.219
598 2.218
599 2.2
600 2.206
601 2.195
602 2.17
603 2.182
604 2.223
605 2.234
606 2.223
607 2.216
608 2.209
609 2.19
610 2.18
611 2.183
612 2.188
613 2.18
614 2.154
615 2.154
616 2.139
617 2.101
618 2.135
619 2.169
620 2.184
621 2.206
622 2.192
623 2.18
624 2.17
625 2.152
626 2.146
627 2.19
628 2.219
629 2.222
630 2.198
631 2.189
632 2.16
633 2.188
634 2.178
635 2.187
636 2.188
637 2.183
638 2.215
639 2.216
640 2.173
641 2.158
642 2.15
643 2.175
644 2.169
645 2.174
646 2.157
647 2.161
648 2.178
649 2.173
650 2.11
651 2.187
652 2.199
653 2.169
654 2.153
655 2.12
656 1.982
657 1.823
658 2.018
659 2.117
660 2.126
661 2.145
662 2.159
663 2.153
664 2.129
665 2.136
666 2.143
667 2.132
668 2.127
669 2.142
670 2.138
671 2.131
672 2.122
673 2.117
674 2.114
675 2.111
676 2.109
677 2.107
678 2.105
679 2.103
680 2.102
681 2.1
682 2.099
683 2.099
684 2.098
685 2.098
686 2.098
687 2.098
688 2.098
689 2.103
690 2.115
691 2.119
692 2.109
693 2.103
694 2.107
695 2.096
696 2.095
697 2.102
698 2.075
699 2.101
700 2.107
701 2.079
702 2.067
703 2.076
704 2.087
705 2.109
706 2.097
707 2.072
708 2.075
709 2.057
710 2.044
711 2.053
712 2.026
713 2.019
714 2.024
715 2.02
716 2.014
717 2.023
718 2.021
719 1.996
720 1.997
721 2.002
722 2.003
723 2.002
724 2.011
725 2.006
726 1.99
727 1.996
728 1.993
729 1.957
730 1.949
731 1.986
732 1.982
733 1.981
734 1.982
735 1.983
736 1.963
737 1.958
738 1.956
739 1.913
740 1.916
741 1.906
742 1.892
743 1.922
744 1.95
745 1.931
746 1.952
747 1.945
748 1.953
749 1.942
750 1.921
