# Top-of-atmosphere (TOA) lunar irradiance from Miller and Turner (2009) by 10 nm increments
# First column wavelength (nm), second column TOA irradiance# Phase angle = 163
# Units = mW/m^2-micrometer

300 0.4037
310 0.4017
320 0.6078
330 0.9867
340 0.887
350 0.8175
360 1.077
370 1.297
380 1.128
390 1.332
400 1.916
410 1.997
420 2.075
430 1.829
440 2.229
450 2.647
460 2.716
470 2.739
480 2.919
490 2.839
500 2.806
510 2.838
520 2.71
530 2.897
540 2.871
550 3.001
560 2.845
570 2.945
580 2.998
590 2.81
600 3.031
610 2.992
620 2.995
630 3.012
640 2.976
650 2.887
660 2.906
670 2.92
680 2.869
690 2.884
700 2.872
710 2.784
720 2.718
730 2.65
740 2.603
750 2.607
