# Top-of-atmosphere (TOA) lunar irradiance from Miller and Turner (2009) by 10 nm increments
# First column wavelength (nm), second column TOA irradiance# Phase angle = 146
# Units = mW/m^2-micrometer

300 0.258
310 0.257
320 0.3893
330 0.6326
340 0.5693
350 0.5253
360 0.6929
370 0.8349
380 0.7273
390 0.8593
400 1.238
410 1.291
420 1.343
430 1.185
440 1.445
450 1.718
460 1.765
470 1.782
480 1.901
490 1.851
500 1.831
510 1.854
520 1.773
530 1.897
540 1.881
550 1.969
560 1.868
570 1.936
580 1.973
590 1.851
600 1.999
610 1.975
620 1.98
630 1.992
640 1.971
650 1.914
660 1.929
670 1.94
680 1.908
690 1.92
700 1.914
710 1.857
720 1.815
730 1.772
740 1.742
750 1.746
