# Top-of-atmosphere (TOA) lunar irradiance from Miller and Turner (2009) by 10 nm increments
# First column wavelength (nm), second column TOA irradiance# Phase angle = 139
# Units = mW/m^2-micrometer

300 0.2148
310 0.214
320 0.3243
330 0.5272
340 0.4746
350 0.4381
360 0.578
370 0.6968
380 0.6073
390 0.7177
400 1.034
410 1.08
420 1.123
430 0.9913
440 1.21
450 1.439
460 1.478
470 1.493
480 1.594
490 1.552
500 1.536
510 1.556
520 1.488
530 1.593
540 1.581
550 1.655
560 1.571
570 1.629
580 1.661
590 1.559
600 1.684
610 1.665
620 1.669
630 1.68
640 1.663
650 1.616
660 1.629
670 1.639
680 1.612
690 1.623
700 1.618
710 1.571
720 1.536
730 1.5
740 1.475
750 1.48
