# Top-of-atmosphere (TOA) lunar irradiance from Miller and Turner (2009) by 10 nm increments
# First column wavelength (nm), second column TOA irradiance# Phase angle = 161
# Units = mW/m^2-micrometer

300 0.3828
310 0.3809
320 0.5764
330 0.9358
340 0.8414
350 0.7756
360 1.022
370 1.231
380 1.071
390 1.264
400 1.819
410 1.896
420 1.971
430 1.737
440 2.117
450 2.514
460 2.58
470 2.602
480 2.774
490 2.698
500 2.667
510 2.698
520 2.577
530 2.755
540 2.73
550 2.855
560 2.706
570 2.802
580 2.852
590 2.674
600 2.884
610 2.848
620 2.852
630 2.868
640 2.833
650 2.75
660 2.768
670 2.782
680 2.733
690 2.748
700 2.737
710 2.653
720 2.591
730 2.526
740 2.482
750 2.486
