# Top-of-atmosphere (TOA) lunar irradiance from Miller and Turner (2009) by 10 nm increments
# First column wavelength (nm), second column TOA irradiance# Phase angle = 156
# Units = mW/m^2-micrometer

300 0.3357
310 0.3342
320 0.5058
330 0.8216
340 0.7389
350 0.6813
360 0.8981
370 1.082
380 0.9416
390 1.112
400 1.6
410 1.669
420 1.735
430 1.529
440 1.864
450 2.215
460 2.274
470 2.294
480 2.447
490 2.38
500 2.353
510 2.381
520 2.275
530 2.433
540 2.412
550 2.523
560 2.392
570 2.477
580 2.523
590 2.366
600 2.553
610 2.522
620 2.525
630 2.54
640 2.511
650 2.437
660 2.454
670 2.468
680 2.425
690 2.439
700 2.429
710 2.356
720 2.301
730 2.245
740 2.206
750 2.21
