# Top-of-atmosphere (TOA) lunar irradiance from Miller and Turner (2009)
# First column wavelength (nm), second column TOA irradiance# Lunar phase angle: 73
# Irradiance units: mW/m^2-micrometer

300 0.02837
301 0.0211
302 0.02657
303 0.02539
304 0.03592
305 0.03346
306 0.03416
307 0.0316
308 0.03676
309 0.03708
310 0.02831
311 0.03762
312 0.04464
313 0.03877
314 0.04207
315 0.03866
316 0.03981
317 0.03639
318 0.05068
319 0.03899
320 0.04297
321 0.05309
322 0.04212
323 0.04415
324 0.04118
325 0.04936
326 0.05529
327 0.06305
328 0.06122
329 0.05692
330 0.06998
331 0.06462
332 0.064
333 0.06211
334 0.05951
335 0.06366
336 0.06491
337 0.05139
338 0.05643
339 0.06058
340 0.0631
341 0.0697
342 0.06113
343 0.06802
344 0.06839
345 0.04935
346 0.06736
347 0.06252
348 0.06204
349 0.0647
350 0.05833
351 0.0771
352 0.06882
353 0.06165
354 0.07442
355 0.0792
356 0.07427
357 0.06641
358 0.06033
359 0.04505
360 0.0771
361 0.07273
362 0.06447
363 0.07373
364 0.06964
365 0.07516
366 0.08629
367 0.09188
368 0.08863
369 0.07909
370 0.09309
371 0.08255
372 0.09551
373 0.07892
374 0.06815
375 0.06955
376 0.08361
377 0.08208
378 0.09894
379 0.1062
380 0.08125
381 0.09516
382 0.08652
383 0.06207
384 0.05174
385 0.07505
386 0.07899
387 0.08002
388 0.07818
389 0.07521
390 0.09619
391 0.09845
392 0.1146
393 0.08672
394 0.03778
395 0.08749
396 0.1132
397 0.06019
398 0.06768
399 0.129
400 0.1388
401 0.1395
402 0.1518
403 0.1542
404 0.1511
405 0.1477
406 0.1436
407 0.1399
408 0.1419
409 0.1439
410 0.1451
411 0.1345
412 0.14
413 0.1456
414 0.1511
415 0.1518
416 0.1522
417 0.1542
418 0.1511
419 0.1511
420 0.1513
421 0.155
422 0.158
423 0.1527
424 0.1509
425 0.1546
426 0.1535
427 0.1529
428 0.1473
429 0.1473
430 0.1337
431 0.1117
432 0.1384
433 0.153
434 0.1511
435 0.148
436 0.1591
437 0.1681
438 0.163
439 0.1568
440 0.1634
441 0.1706
442 0.1772
443 0.1827
444 0.1833
445 0.1836
446 0.1806
447 0.1795
448 0.1901
449 0.1926
450 0.1947
451 0.2035
452 0.2046
453 0.1951
454 0.1902
455 0.1991
456 0.2006
457 0.2062
458 0.2064
459 0.2015
460 0.2003
461 0.2036
462 0.207
463 0.2091
464 0.2069
465 0.2025
466 0.2026
467 0.2012
468 0.2003
469 0.204
470 0.2027
471 0.1999
472 0.205
473 0.2114
474 0.2089
475 0.2136
476 0.2136
477 0.2109
478 0.2166
479 0.2167
480 0.2167
481 0.2158
482 0.2176
483 0.2158
484 0.2132
485 0.2108
486 0.192
487 0.1815
488 0.1966
489 0.2029
490 0.2114
491 0.2146
492 0.2072
493 0.2069
494 0.2096
495 0.2148
496 0.2151
497 0.2145
498 0.213
499 0.2097
500 0.2095
501 0.2063
502 0.2024
503 0.2069
504 0.211
505 0.2103
506 0.2183
507 0.2219
508 0.2188
509 0.2158
510 0.2125
511 0.2104
512 0.2148
513 0.2126
514 0.2077
515 0.2053
516 0.2086
517 0.1944
518 0.183
519 0.1901
520 0.2036
521 0.2076
522 0.2116
523 0.2076
524 0.2114
525 0.2181
526 0.2159
527 0.1978
528 0.2027
529 0.216
530 0.2183
531 0.2217
532 0.2223
533 0.2201
534 0.2172
535 0.2181
536 0.2248
537 0.2199
538 0.2201
539 0.2218
540 0.217
541 0.2129
542 0.2177
543 0.2205
544 0.2226
545 0.2247
546 0.2255
547 0.2258
548 0.2234
549 0.2247
550 0.2276
551 0.2266
552 0.2277
553 0.2275
554 0.2271
555 0.2296
556 0.2287
557 0.2242
558 0.2217
559 0.2191
560 0.2163
561 0.2218
562 0.2241
563 0.2217
564 0.223
565 0.2238
566 0.2221
567 0.2224
568 0.2266
569 0.225
570 0.2246
571 0.2226
572 0.2232
573 0.2321
574 0.2334
575 0.2317
576 0.2285
577 0.2297
578 0.2303
579 0.2274
580 0.2294
581 0.2317
582 0.233
583 0.2356
584 0.236
585 0.2345
586 0.2305
587 0.2303
588 0.2337
589 0.225
590 0.2156
591 0.2263
592 0.2318
593 0.2326
594 0.2325
595 0.2334
596 0.2326
597 0.2345
598 0.2344
599 0.2325
600 0.2333
601 0.2321
602 0.2296
603 0.2308
604 0.2353
605 0.2364
606 0.2354
607 0.2347
608 0.234
609 0.2321
610 0.231
611 0.2314
612 0.232
613 0.2311
614 0.2285
615 0.2286
616 0.227
617 0.223
618 0.2267
619 0.2303
620 0.232
621 0.2343
622 0.233
623 0.2317
624 0.2307
625 0.2288
626 0.2283
627 0.233
628 0.2361
629 0.2364
630 0.234
631 0.2331
632 0.23
633 0.2331
634 0.232
635 0.233
636 0.2332
637 0.2328
638 0.2362
639 0.2363
640 0.2319
641 0.2303
642 0.2295
643 0.2322
644 0.2316
645 0.2322
646 0.2304
647 0.2309
648 0.2328
649 0.2323
650 0.2257
651 0.2339
652 0.2353
653 0.2321
654 0.2304
655 0.227
656 0.2122
657 0.1952
658 0.2162
659 0.2269
660 0.2278
661 0.23
662 0.2315
663 0.2309
664 0.2283
665 0.2292
666 0.2299
667 0.2288
668 0.2284
669 0.23
670 0.2296
671 0.229
672 0.228
673 0.2275
674 0.2273
675 0.227
676 0.2268
677 0.2266
678 0.2265
679 0.2264
680 0.2262
681 0.2262
682 0.2261
683 0.2261
684 0.2261
685 0.2261
686 0.2261
687 0.2262
688 0.2263
689 0.2268
690 0.2282
691 0.2287
692 0.2277
693 0.227
694 0.2275
695 0.2264
696 0.2264
697 0.2272
698 0.2242
699 0.2271
700 0.2279
701 0.2249
702 0.2236
703 0.2247
704 0.2259
705 0.2283
706 0.227
707 0.2244
708 0.2248
709 0.2229
710 0.2216
711 0.2226
712 0.2197
713 0.2189
714 0.2195
715 0.2192
716 0.2185
717 0.2196
718 0.2195
719 0.2168
720 0.217
721 0.2175
722 0.2177
723 0.2176
724 0.2186
725 0.2182
726 0.2165
727 0.2172
728 0.2169
729 0.213
730 0.2122
731 0.2162
732 0.2159
733 0.2158
734 0.216
735 0.2162
736 0.214
737 0.2135
738 0.2133
739 0.2086
740 0.2091
741 0.208
742 0.2066
743 0.2098
744 0.213
745 0.2109
746 0.2133
747 0.2126
748 0.2134
749 0.2123
750 0.21
