# Top-of-atmosphere (TOA) lunar irradiance from Miller and Turner (2009) by 10 nm increments
# First column wavelength (nm), second column TOA irradiance# Phase angle = 168
# Units = mW/m^2-micrometer

300 0.4612
310 0.4587
320 0.6939
330 1.126
340 1.012
350 0.9325
360 1.228
370 1.478
380 1.286
390 1.517
400 2.182
410 2.274
420 2.362
430 2.081
440 2.535
450 3.009
460 3.087
470 3.112
480 3.316
490 3.224
500 3.185
510 3.22
520 3.075
530 3.286
540 3.255
550 3.402
560 3.223
570 3.336
580 3.395
590 3.181
600 3.43
610 3.385
620 3.388
630 3.405
640 3.363
650 3.263
660 3.283
670 3.298
680 3.238
690 3.255
700 3.24
710 3.14
720 3.064
730 2.987
740 2.933
750 2.937
