# Top-of-atmosphere (TOA) lunar irradiance from Miller and Turner (2009) by 10 nm increments
# First column wavelength (nm), second column TOA irradiance# Phase angle = 176
# Units = mW/m^2-micrometer

300 0.5725
310 0.5691
320 0.8604
330 1.396
340 1.254
350 1.154
360 1.52
370 1.828
380 1.589
390 1.874
400 2.694
410 2.806
420 2.913
430 2.565
440 3.123
450 3.706
460 3.799
470 3.828
480 4.078
490 3.962
500 3.912
510 3.953
520 3.773
530 4.03
540 3.989
550 4.168
560 3.946
570 4.082
580 4.152
590 3.888
600 4.19
610 4.134
620 4.135
630 4.154
640 4.1
650 3.975
660 3.998
670 4.014
680 3.939
690 3.958
700 3.937
710 3.813
720 3.72
730 3.624
740 3.557
750 3.559
