# Top-of-atmosphere (TOA) lunar irradiance from Miller and Turner (2009)
# First column wavelength (nm), second column TOA irradiance# Lunar phase angle: 15
# Irradiance units: mW/m^2-micrometer

300 0.0006287
301 0.0004677
302 0.0005892
303 0.0005633
304 0.0007971
305 0.0007427
306 0.0007586
307 0.000702
308 0.0008168
309 0.0008242
310 0.0006297
311 0.0008369
312 0.0009934
313 0.0008632
314 0.0009369
315 0.0008613
316 0.0008872
317 0.0008114
318 0.00113
319 0.0008698
320 0.0009591
321 0.001185
322 0.0009408
323 0.0009865
324 0.0009204
325 0.001104
326 0.001237
327 0.001411
328 0.00137
329 0.001274
330 0.001567
331 0.001448
332 0.001434
333 0.001392
334 0.001335
335 0.001428
336 0.001457
337 0.001154
338 0.001267
339 0.001361
340 0.001418
341 0.001567
342 0.001375
343 0.001531
344 0.001539
345 0.001111
346 0.001517
347 0.001409
348 0.001398
349 0.001459
350 0.001316
351 0.00174
352 0.001553
353 0.001392
354 0.001681
355 0.00179
356 0.001679
357 0.001502
358 0.001365
359 0.00102
360 0.001745
361 0.001647
362 0.001461
363 0.001671
364 0.001579
365 0.001705
366 0.001958
367 0.002085
368 0.002012
369 0.001796
370 0.002115
371 0.001876
372 0.002171
373 0.001795
374 0.00155
375 0.001583
376 0.001904
377 0.001869
378 0.002254
379 0.002421
380 0.001852
381 0.00217
382 0.001974
383 0.001417
384 0.001181
385 0.001714
386 0.001805
387 0.001829
388 0.001788
389 0.00172
390 0.002201
391 0.002253
392 0.002625
393 0.001986
394 0.0008657
395 0.002005
396 0.002596
397 0.001381
398 0.001553
399 0.002962
400 0.003188
401 0.003204
402 0.003488
403 0.003545
404 0.003474
405 0.003397
406 0.003304
407 0.00322
408 0.003267
409 0.003314
410 0.003345
411 0.0031
412 0.003229
413 0.003358
414 0.003488
415 0.003503
416 0.003514
417 0.003561
418 0.003493
419 0.003493
420 0.003498
421 0.003586
422 0.003658
423 0.003535
424 0.003494
425 0.003581
426 0.003559
427 0.003546
428 0.003417
429 0.003417
430 0.003103
431 0.002593
432 0.003215
433 0.003555
434 0.003512
435 0.003441
436 0.003701
437 0.003912
438 0.003795
439 0.003651
440 0.003806
441 0.003976
442 0.00413
443 0.00426
444 0.004276
445 0.004283
446 0.004215
447 0.004191
448 0.004441
449 0.0045
450 0.00455
451 0.004759
452 0.004785
453 0.004565
454 0.004453
455 0.004662
456 0.004698
457 0.004831
458 0.004838
459 0.004724
460 0.0047
461 0.004778
462 0.004859
463 0.004911
464 0.004861
465 0.004758
466 0.004764
467 0.004731
468 0.004711
469 0.004801
470 0.004771
471 0.004707
472 0.004829
473 0.004983
474 0.004924
475 0.005037
476 0.00504
477 0.004977
478 0.005113
479 0.005117
480 0.00512
481 0.0051
482 0.005145
483 0.005104
484 0.005044
485 0.004989
486 0.004545
487 0.004298
488 0.004658
489 0.004809
490 0.005011
491 0.005089
492 0.004917
493 0.004912
494 0.004977
495 0.005102
496 0.005111
497 0.005098
498 0.005064
499 0.004987
500 0.004985
501 0.004912
502 0.00482
503 0.004929
504 0.005028
505 0.005014
506 0.005205
507 0.005293
508 0.005222
509 0.005151
510 0.005075
511 0.005026
512 0.005132
513 0.005083
514 0.004967
515 0.00491
516 0.004991
517 0.004653
518 0.004381
519 0.004553
520 0.00488
521 0.004977
522 0.005075
523 0.00498
524 0.005074
525 0.005235
526 0.005185
527 0.004753
528 0.004873
529 0.005193
530 0.005251
531 0.005333
532 0.005351
533 0.005298
534 0.005231
535 0.005254
536 0.005417
537 0.005302
538 0.005309
539 0.005351
540 0.005237
541 0.00514
542 0.005259
543 0.005327
544 0.00538
545 0.005434
546 0.005455
547 0.005463
548 0.005406
549 0.00544
550 0.005512
551 0.005492
552 0.005519
553 0.005517
554 0.005508
555 0.005572
556 0.005552
557 0.005445
558 0.005386
559 0.005323
560 0.005258
561 0.005394
562 0.00545
563 0.005395
564 0.005429
565 0.00545
566 0.00541
567 0.00542
568 0.005523
569 0.005487
570 0.00548
571 0.005432
572 0.005449
573 0.005668
574 0.005703
575 0.005662
576 0.005586
577 0.005616
578 0.005635
579 0.005565
580 0.005616
581 0.005674
582 0.005708
583 0.005773
584 0.005787
585 0.005752
586 0.005656
587 0.005653
588 0.005738
589 0.005526
590 0.005298
591 0.005561
592 0.0057
593 0.00572
594 0.00572
595 0.005746
596 0.005728
597 0.005775
598 0.005776
599 0.005732
600 0.005752
601 0.005725
602 0.005665
603 0.005698
604 0.00581
605 0.00584
606 0.005816
607 0.005802
608 0.005787
609 0.00574
610 0.005717
611 0.005727
612 0.005745
613 0.005726
614 0.005662
615 0.005666
616 0.005629
617 0.005531
618 0.005626
619 0.005717
620 0.005761
621 0.005821
622 0.005789
623 0.005761
624 0.005737
625 0.005693
626 0.005681
627 0.0058
628 0.005879
629 0.00589
630 0.005831
631 0.005811
632 0.005736
633 0.005815
634 0.005791
635 0.005818
636 0.005824
637 0.005816
638 0.005904
639 0.005909
640 0.005799
641 0.005761
642 0.005745
643 0.005813
644 0.005802
645 0.005817
646 0.005775
647 0.00579
648 0.005838
649 0.005829
650 0.005664
651 0.005872
652 0.00591
653 0.005832
654 0.005791
655 0.005708
656 0.005338
657 0.004911
658 0.005442
659 0.005712
660 0.005739
661 0.005795
662 0.005836
663 0.005823
664 0.00576
665 0.005783
666 0.005804
667 0.005778
668 0.005769
669 0.005813
670 0.005805
671 0.00579
672 0.005769
673 0.005758
674 0.005754
675 0.00575
676 0.005746
677 0.005744
678 0.005742
679 0.00574
680 0.00574
681 0.00574
682 0.00574
683 0.005741
684 0.005743
685 0.005746
686 0.005749
687 0.005753
688 0.005758
689 0.005773
690 0.005809
691 0.005824
692 0.0058
693 0.005786
694 0.005801
695 0.005775
696 0.005775
697 0.005798
698 0.005725
699 0.005801
700 0.005822
701 0.005749
702 0.005717
703 0.005747
704 0.00578
705 0.005845
706 0.005813
707 0.005748
708 0.00576
709 0.005714
710 0.005681
711 0.005709
712 0.005636
713 0.00562
714 0.005638
715 0.005631
716 0.005616
717 0.005645
718 0.005644
719 0.005576
720 0.005583
721 0.005599
722 0.005607
723 0.005605
724 0.005634
725 0.005625
726 0.005582
727 0.005603
728 0.005597
729 0.005499
730 0.00548
731 0.005587
732 0.005579
733 0.00558
734 0.005586
735 0.005592
736 0.005538
737 0.005527
738 0.005525
739 0.005405
740 0.005418
741 0.005393
742 0.005358
743 0.005443
744 0.005528
745 0.005477
746 0.00554
747 0.005523
748 0.005547
749 0.00552
750 0.005463
