# Top-of-atmosphere (TOA) lunar irradiance from Miller and Turner (2009)
# First column wavelength (nm), second column TOA irradiance# Lunar phase angle: 124
# Irradiance units: mW/m^2-micrometer

300 0.1499
301 0.1115
302 0.1404
303 0.1341
304 0.1897
305 0.1767
306 0.1803
307 0.1668
308 0.194
309 0.1957
310 0.1494
311 0.1985
312 0.2355
313 0.2045
314 0.2219
315 0.2039
316 0.2099
317 0.1919
318 0.2672
319 0.2055
320 0.2265
321 0.2798
322 0.2219
323 0.2326
324 0.2169
325 0.26
326 0.2912
327 0.332
328 0.3223
329 0.2997
330 0.3683
331 0.34
332 0.3367
333 0.3268
334 0.3131
335 0.3349
336 0.3414
337 0.2702
338 0.2967
339 0.3185
340 0.3317
341 0.3664
342 0.3212
343 0.3574
344 0.3593
345 0.2592
346 0.3538
347 0.3284
348 0.3258
349 0.3397
350 0.3062
351 0.4047
352 0.3612
353 0.3235
354 0.3905
355 0.4155
356 0.3896
357 0.3483
358 0.3164
359 0.2362
360 0.4042
361 0.3813
362 0.338
363 0.3864
364 0.3649
365 0.3938
366 0.4521
367 0.4813
368 0.4642
369 0.4142
370 0.4874
371 0.4322
372 0.5
373 0.4131
374 0.3567
375 0.3639
376 0.4375
377 0.4294
378 0.5175
379 0.5557
380 0.4249
381 0.4976
382 0.4524
383 0.3245
384 0.2704
385 0.3922
386 0.4128
387 0.4181
388 0.4084
389 0.3929
390 0.5024
391 0.5141
392 0.5986
393 0.4527
394 0.1972
395 0.4566
396 0.5908
397 0.3141
398 0.3531
399 0.6731
400 0.7241
401 0.7275
402 0.7916
403 0.8041
404 0.7876
405 0.7698
406 0.7483
407 0.7289
408 0.7392
409 0.7496
410 0.7561
411 0.7006
412 0.7292
413 0.758
414 0.7869
415 0.7901
416 0.7921
417 0.8024
418 0.7865
419 0.7862
420 0.787
421 0.8064
422 0.8221
423 0.794
424 0.7845
425 0.8038
426 0.7983
427 0.795
428 0.7657
429 0.7654
430 0.6947
431 0.5802
432 0.7191
433 0.7948
434 0.7847
435 0.7685
436 0.8263
437 0.8729
438 0.8463
439 0.8138
440 0.8481
441 0.8853
442 0.9193
443 0.9478
444 0.9508
445 0.952
446 0.9364
447 0.9307
448 0.9857
449 0.9983
450 1.009
451 1.055
452 1.06
453 1.011
454 0.9855
455 1.031
456 1.039
457 1.068
458 1.069
459 1.043
460 1.037
461 1.054
462 1.071
463 1.082
464 1.071
465 1.047
466 1.048
467 1.041
468 1.036
469 1.055
470 1.048
471 1.033
472 1.059
473 1.093
474 1.079
475 1.103
476 1.104
477 1.089
478 1.118
479 1.119
480 1.119
481 1.114
482 1.123
483 1.114
484 1.1
485 1.088
486 0.9903
487 0.936
488 1.014
489 1.046
490 1.09
491 1.106
492 1.068
493 1.067
494 1.08
495 1.107
496 1.108
497 1.105
498 1.097
499 1.08
500 1.079
501 1.062
502 1.042
503 1.065
504 1.086
505 1.083
506 1.123
507 1.142
508 1.126
509 1.11
510 1.093
511 1.082
512 1.104
513 1.093
514 1.068
515 1.055
516 1.072
517 0.9988
518 0.94
519 0.9764
520 1.046
521 1.066
522 1.087
523 1.066
524 1.086
525 1.119
526 1.108
527 1.015
528 1.04
529 1.108
530 1.12
531 1.137
532 1.14
533 1.128
534 1.114
535 1.118
536 1.152
537 1.127
538 1.128
539 1.136
540 1.112
541 1.091
542 1.115
543 1.129
544 1.14
545 1.151
546 1.154
547 1.156
548 1.143
549 1.15
550 1.164
551 1.159
552 1.165
553 1.164
554 1.161
555 1.174
556 1.169
557 1.146
558 1.133
559 1.12
560 1.105
561 1.133
562 1.145
563 1.133
564 1.139
565 1.143
566 1.134
567 1.136
568 1.157
569 1.148
570 1.146
571 1.136
572 1.139
573 1.184
574 1.191
575 1.182
576 1.165
577 1.171
578 1.174
579 1.159
580 1.169
581 1.181
582 1.187
583 1.2
584 1.202
585 1.195
586 1.174
587 1.173
588 1.19
589 1.145
590 1.098
591 1.152
592 1.18
593 1.183
594 1.183
595 1.188
596 1.183
597 1.193
598 1.192
599 1.182
600 1.186
601 1.18
602 1.167
603 1.173
604 1.196
605 1.201
606 1.196
607 1.192
608 1.189
609 1.178
610 1.173
611 1.175
612 1.178
613 1.173
614 1.16
615 1.16
616 1.152
617 1.131
618 1.15
619 1.168
620 1.176
621 1.188
622 1.181
623 1.175
624 1.169
625 1.16
626 1.157
627 1.18
628 1.196
629 1.198
630 1.185
631 1.18
632 1.165
633 1.18
634 1.175
635 1.179
636 1.18
637 1.178
638 1.195
639 1.196
640 1.173
641 1.164
642 1.161
643 1.174
644 1.171
645 1.174
646 1.164
647 1.167
648 1.176
649 1.174
650 1.14
651 1.181
652 1.188
653 1.172
654 1.163
655 1.146
656 1.071
657 0.9851
658 1.091
659 1.145
660 1.149
661 1.16
662 1.168
663 1.165
664 1.151
665 1.155
666 1.159
667 1.153
668 1.151
669 1.159
670 1.157
671 1.153
672 1.149
673 1.146
674 1.145
675 1.143
676 1.142
677 1.141
678 1.14
679 1.139
680 1.138
681 1.138
682 1.137
683 1.137
684 1.137
685 1.137
686 1.137
687 1.137
688 1.138
689 1.14
690 1.147
691 1.149
692 1.144
693 1.14
694 1.143
695 1.137
696 1.137
697 1.141
698 1.126
699 1.14
700 1.144
701 1.129
702 1.122
703 1.127
704 1.133
705 1.145
706 1.139
707 1.125
708 1.127
709 1.118
710 1.111
711 1.116
712 1.101
713 1.097
714 1.1
715 1.098
716 1.095
717 1.1
718 1.099
719 1.085
720 1.086
721 1.089
722 1.09
723 1.089
724 1.094
725 1.092
726 1.083
727 1.086
728 1.085
729 1.065
730 1.061
731 1.081
732 1.079
733 1.079
734 1.079
735 1.08
736 1.069
737 1.066
738 1.066
739 1.042
740 1.044
741 1.039
742 1.031
743 1.047
744 1.063
745 1.053
746 1.064
747 1.061
748 1.065
749 1.059
750 1.047
