# Top-of-atmosphere (TOA) lunar irradiance from Miller and Turner (2009)
# First column wavelength (nm), second column TOA irradiance# Lunar phase angle: 135
# Irradiance units: mW/m^2-micrometer

300 0.195
301 0.145
302 0.1826
303 0.1745
304 0.2468
305 0.2298
306 0.2346
307 0.217
308 0.2524
309 0.2545
310 0.1943
311 0.2582
312 0.3063
313 0.266
314 0.2886
315 0.2652
316 0.273
317 0.2496
318 0.3475
319 0.2672
320 0.2945
321 0.3638
322 0.2886
323 0.3025
324 0.2821
325 0.3381
326 0.3786
327 0.4317
328 0.4191
329 0.3896
330 0.4789
331 0.4421
332 0.4378
333 0.4248
334 0.407
335 0.4354
336 0.4438
337 0.3513
338 0.3857
339 0.414
340 0.4312
341 0.4763
342 0.4176
343 0.4646
344 0.4671
345 0.337
346 0.4599
347 0.4268
348 0.4235
349 0.4415
350 0.398
351 0.526
352 0.4694
353 0.4205
354 0.5075
355 0.54
356 0.5063
357 0.4527
358 0.4112
359 0.307
360 0.5253
361 0.4955
362 0.4392
363 0.5021
364 0.4742
365 0.5117
366 0.5874
367 0.6254
368 0.6031
369 0.5381
370 0.6333
371 0.5615
372 0.6496
373 0.5366
374 0.4634
375 0.4728
376 0.5683
377 0.5578
378 0.6723
379 0.7218
380 0.552
381 0.6463
382 0.5876
383 0.4215
384 0.3513
385 0.5095
386 0.5361
387 0.543
388 0.5305
389 0.5102
390 0.6524
391 0.6677
392 0.7774
393 0.588
394 0.2561
395 0.593
396 0.7672
397 0.4078
398 0.4586
399 0.874
400 0.9402
401 0.9446
402 1.028
403 1.044
404 1.023
405 0.9994
406 0.9715
407 0.9463
408 0.9597
409 0.9732
410 0.9816
411 0.9095
412 0.9466
413 0.984
414 1.022
415 1.026
416 1.028
417 1.041
418 1.021
419 1.02
420 1.021
421 1.047
422 1.067
423 1.031
424 1.018
425 1.043
426 1.036
427 1.032
428 0.9936
429 0.9933
430 0.9016
431 0.7529
432 0.9331
433 1.031
434 1.018
435 0.9972
436 1.072
437 1.133
438 1.098
439 1.056
440 1.1
441 1.149
442 1.193
443 1.23
444 1.234
445 1.235
446 1.215
447 1.207
448 1.279
449 1.295
450 1.309
451 1.368
452 1.375
453 1.311
454 1.278
455 1.338
456 1.347
457 1.385
458 1.386
459 1.353
460 1.345
461 1.367
462 1.389
463 1.403
464 1.388
465 1.358
466 1.359
467 1.349
468 1.343
469 1.368
470 1.358
471 1.339
472 1.373
473 1.417
474 1.399
475 1.431
476 1.431
477 1.412
478 1.45
479 1.45
480 1.45
481 1.444
482 1.456
483 1.444
484 1.426
485 1.41
486 1.284
487 1.213
488 1.314
489 1.356
490 1.413
491 1.434
492 1.385
493 1.382
494 1.4
495 1.435
496 1.436
497 1.432
498 1.422
499 1.399
500 1.398
501 1.377
502 1.35
503 1.38
504 1.407
505 1.403
506 1.455
507 1.479
508 1.459
509 1.438
510 1.416
511 1.402
512 1.431
513 1.416
514 1.383
515 1.367
516 1.389
517 1.294
518 1.218
519 1.265
520 1.355
521 1.381
522 1.408
523 1.381
524 1.406
525 1.45
526 1.435
527 1.315
528 1.347
529 1.435
530 1.451
531 1.473
532 1.477
533 1.461
534 1.442
535 1.448
536 1.492
537 1.459
538 1.461
539 1.471
540 1.439
541 1.412
542 1.444
543 1.462
544 1.476
545 1.49
546 1.495
547 1.496
548 1.48
549 1.488
550 1.507
551 1.501
552 1.508
553 1.506
554 1.503
555 1.52
556 1.514
557 1.484
558 1.467
559 1.449
560 1.431
561 1.467
562 1.482
563 1.466
564 1.474
565 1.479
566 1.468
567 1.47
568 1.497
569 1.486
570 1.484
571 1.47
572 1.474
573 1.532
574 1.541
575 1.529
576 1.508
577 1.515
578 1.519
579 1.5
580 1.513
581 1.528
582 1.536
583 1.553
584 1.556
585 1.545
586 1.519
587 1.517
588 1.539
589 1.482
590 1.42
591 1.49
592 1.526
593 1.531
594 1.53
595 1.536
596 1.531
597 1.542
598 1.542
599 1.529
600 1.534
601 1.526
602 1.509
603 1.517
604 1.546
605 1.553
606 1.546
607 1.542
608 1.537
609 1.524
610 1.517
611 1.519
612 1.523
613 1.517
614 1.499
615 1.499
616 1.489
617 1.462
618 1.487
619 1.51
620 1.521
621 1.536
622 1.527
623 1.519
624 1.511
625 1.499
626 1.495
627 1.526
628 1.546
629 1.548
630 1.532
631 1.526
632 1.505
633 1.525
634 1.518
635 1.524
636 1.525
637 1.522
638 1.545
639 1.545
640 1.515
641 1.505
642 1.5
643 1.517
644 1.513
645 1.516
646 1.505
647 1.508
648 1.52
649 1.517
650 1.473
651 1.526
652 1.535
653 1.514
654 1.503
655 1.48
656 1.384
657 1.273
658 1.409
659 1.479
660 1.485
661 1.499
662 1.508
663 1.504
664 1.487
665 1.492
666 1.497
667 1.49
668 1.487
669 1.497
670 1.494
671 1.49
672 1.483
673 1.48
674 1.478
675 1.476
676 1.475
677 1.473
678 1.472
679 1.471
680 1.47
681 1.469
682 1.469
683 1.468
684 1.468
685 1.468
686 1.468
687 1.468
688 1.469
689 1.472
690 1.48
691 1.483
692 1.477
693 1.472
694 1.475
695 1.468
696 1.467
697 1.472
698 1.453
699 1.472
700 1.476
701 1.457
702 1.448
703 1.455
704 1.463
705 1.478
706 1.469
707 1.452
708 1.455
709 1.442
710 1.433
711 1.44
712 1.42
713 1.416
714 1.419
715 1.417
716 1.412
717 1.419
718 1.418
719 1.4
720 1.401
721 1.405
722 1.406
723 1.405
724 1.411
725 1.408
726 1.397
727 1.401
728 1.399
729 1.374
730 1.369
731 1.394
732 1.392
733 1.391
734 1.392
735 1.393
736 1.379
737 1.375
738 1.374
739 1.344
740 1.346
741 1.339
742 1.33
743 1.351
744 1.371
745 1.357
746 1.372
747 1.368
748 1.373
749 1.366
750 1.351
