# Top-of-atmosphere (TOA) lunar irradiance from Miller and Turner (2009)
# First column wavelength (nm), second column TOA irradiance# Lunar phase angle: 154
# Irradiance units: mW/m^2-micrometer

300 0.3186
301 0.2369
302 0.2982
303 0.2849
304 0.403
305 0.3753
306 0.383
307 0.3543
308 0.412
309 0.4155
310 0.3172
311 0.4213
312 0.4998
313 0.434
314 0.4708
315 0.4325
316 0.4453
317 0.407
318 0.5667
319 0.4358
320 0.4802
321 0.5931
322 0.4705
323 0.493
324 0.4597
325 0.5509
326 0.617
327 0.7033
328 0.6827
329 0.6347
330 0.78
331 0.7201
332 0.713
333 0.6918
334 0.6627
335 0.7088
336 0.7224
337 0.5718
338 0.6277
339 0.6738
340 0.7016
341 0.7748
342 0.6794
343 0.7558
344 0.7597
345 0.548
346 0.7478
347 0.694
348 0.6885
349 0.7178
350 0.647
351 0.855
352 0.7629
353 0.6833
354 0.8246
355 0.8773
356 0.8226
357 0.7353
358 0.6678
359 0.4986
360 0.853
361 0.8045
362 0.713
363 0.8151
364 0.7697
365 0.8306
366 0.9533
367 1.015
368 0.9786
369 0.8731
370 1.027
371 0.9108
372 1.054
373 0.8703
374 0.7514
375 0.7666
376 0.9214
377 0.9043
378 1.09
379 1.17
380 0.8945
381 1.047
382 0.952
383 0.6828
384 0.569
385 0.8252
386 0.8684
387 0.8794
388 0.859
389 0.8261
390 1.056
391 1.081
392 1.258
393 0.9516
394 0.4145
395 0.9596
396 1.241
397 0.6598
398 0.7418
399 1.414
400 1.521
401 1.528
402 1.662
403 1.688
404 1.653
405 1.616
406 1.57
407 1.529
408 1.551
409 1.573
410 1.586
411 1.469
412 1.529
413 1.589
414 1.65
415 1.656
416 1.66
417 1.682
418 1.648
419 1.647
420 1.649
421 1.689
422 1.722
423 1.663
424 1.643
425 1.683
426 1.671
427 1.664
428 1.603
429 1.602
430 1.454
431 1.214
432 1.504
433 1.663
434 1.641
435 1.607
436 1.728
437 1.825
438 1.769
439 1.701
440 1.773
441 1.85
442 1.921
443 1.98
444 1.986
445 1.988
446 1.956
447 1.944
448 2.058
449 2.084
450 2.106
451 2.201
452 2.212
453 2.109
454 2.056
455 2.151
456 2.167
457 2.227
458 2.229
459 2.175
460 2.162
461 2.197
462 2.233
463 2.255
464 2.231
465 2.183
466 2.184
467 2.168
468 2.157
469 2.197
470 2.182
471 2.151
472 2.205
473 2.275
474 2.246
475 2.297
476 2.297
477 2.266
478 2.327
479 2.327
480 2.327
481 2.317
482 2.336
483 2.316
484 2.287
485 2.261
486 2.058
487 1.945
488 2.107
489 2.174
490 2.264
491 2.298
492 2.219
493 2.215
494 2.243
495 2.298
496 2.301
497 2.294
498 2.277
499 2.241
500 2.239
501 2.204
502 2.162
503 2.209
504 2.253
505 2.245
506 2.329
507 2.367
508 2.334
509 2.301
510 2.266
511 2.242
512 2.288
513 2.265
514 2.212
515 2.185
516 2.22
517 2.068
518 1.946
519 2.021
520 2.165
521 2.207
522 2.249
523 2.205
524 2.246
525 2.316
526 2.292
527 2.1
528 2.152
529 2.291
530 2.316
531 2.351
532 2.357
533 2.332
534 2.301
535 2.31
536 2.38
537 2.328
538 2.33
539 2.347
540 2.296
541 2.252
542 2.303
543 2.331
544 2.353
545 2.375
546 2.382
547 2.385
548 2.359
549 2.372
550 2.402
551 2.391
552 2.402
553 2.4
554 2.394
555 2.42
556 2.41
557 2.362
558 2.335
559 2.307
560 2.277
561 2.335
562 2.358
563 2.332
564 2.346
565 2.353
566 2.334
567 2.338
568 2.381
569 2.363
570 2.359
571 2.337
572 2.343
573 2.435
574 2.449
575 2.43
576 2.396
577 2.408
578 2.414
579 2.383
580 2.403
581 2.426
582 2.44
583 2.466
584 2.47
585 2.454
586 2.411
587 2.409
588 2.443
589 2.351
590 2.253
591 2.364
592 2.421
593 2.428
594 2.427
595 2.436
596 2.427
597 2.446
598 2.445
599 2.424
600 2.432
601 2.419
602 2.392
603 2.404
604 2.45
605 2.461
606 2.45
607 2.442
608 2.434
609 2.413
610 2.402
611 2.405
612 2.411
613 2.402
614 2.373
615 2.373
616 2.357
617 2.314
618 2.352
619 2.389
620 2.406
621 2.43
622 2.415
623 2.402
624 2.39
625 2.371
626 2.364
627 2.412
628 2.444
629 2.447
630 2.421
631 2.411
632 2.378
633 2.41
634 2.398
635 2.408
636 2.409
637 2.404
638 2.439
639 2.44
640 2.393
641 2.376
642 2.368
643 2.394
644 2.388
645 2.393
646 2.374
647 2.379
648 2.398
649 2.392
650 2.323
651 2.407
652 2.421
653 2.388
654 2.37
655 2.334
656 2.182
657 2.006
658 2.221
659 2.33
660 2.34
661 2.361
662 2.376
663 2.37
664 2.343
665 2.35
666 2.358
667 2.346
668 2.341
669 2.357
670 2.352
671 2.345
672 2.335
673 2.329
674 2.326
675 2.323
676 2.32
677 2.318
678 2.315
679 2.314
680 2.312
681 2.31
682 2.309
683 2.308
684 2.308
685 2.307
686 2.307
687 2.307
688 2.308
689 2.313
690 2.326
691 2.33
692 2.319
693 2.312
694 2.317
695 2.305
696 2.304
697 2.312
698 2.281
699 2.31
700 2.317
701 2.286
702 2.272
703 2.283
704 2.295
705 2.319
706 2.305
707 2.278
708 2.281
709 2.262
710 2.247
711 2.257
712 2.227
713 2.219
714 2.225
715 2.221
716 2.213
717 2.224
718 2.222
719 2.194
720 2.195
721 2.2
722 2.202
723 2.2
724 2.21
725 2.205
726 2.187
727 2.194
728 2.19
729 2.15
730 2.142
731 2.182
732 2.178
733 2.177
734 2.178
735 2.179
736 2.157
737 2.151
738 2.149
739 2.101
740 2.105
741 2.094
742 2.079
743 2.111
744 2.142
745 2.121
746 2.144
747 2.136
748 2.144
749 2.133
750 2.109
