# Top-of-atmosphere (TOA) lunar irradiance from Miller and Turner (2009) by 10 nm increments
# First column wavelength (nm), second column TOA irradiance# Phase angle = 145
# Units = mW/m^2-micrometer

300 0.2513
310 0.2503
320 0.3791
330 0.6162
340 0.5545
350 0.5117
360 0.6749
370 0.8133
380 0.7086
390 0.8372
400 1.206
410 1.258
420 1.309
430 1.155
440 1.409
450 1.675
460 1.72
470 1.737
480 1.854
490 1.804
500 1.785
510 1.808
520 1.729
530 1.85
540 1.835
550 1.92
560 1.822
570 1.888
580 1.925
590 1.806
600 1.95
610 1.927
620 1.931
630 1.944
640 1.923
650 1.868
660 1.882
670 1.894
680 1.862
690 1.874
700 1.868
710 1.813
720 1.772
730 1.73
740 1.701
750 1.705
