# Top-of-atmosphere (TOA) lunar irradiance from Miller and Turner (2009)
# First column wavelength (nm), second column TOA irradiance# Lunar phase angle: 89
# Irradiance units: mW/m^2-micrometer

300 0.05502
301 0.04091
302 0.05152
303 0.04923
304 0.06963
305 0.06485
306 0.06621
307 0.06125
308 0.07123
309 0.07185
310 0.05486
311 0.07289
312 0.08648
313 0.07511
314 0.08149
315 0.07488
316 0.07711
317 0.07048
318 0.09815
319 0.07549
320 0.0832
321 0.1028
322 0.08155
323 0.08547
324 0.07971
325 0.09553
326 0.107
327 0.122
328 0.1185
329 0.1101
330 0.1354
331 0.125
332 0.1238
333 0.1201
334 0.1151
335 0.1231
336 0.1255
337 0.09936
338 0.1091
339 0.1171
340 0.122
341 0.1347
342 0.1182
343 0.1315
344 0.1322
345 0.09536
346 0.1301
347 0.1208
348 0.1199
349 0.125
350 0.1127
351 0.1489
352 0.1329
353 0.1191
354 0.1437
355 0.1529
356 0.1434
357 0.1282
358 0.1165
359 0.08697
360 0.1488
361 0.1404
362 0.1244
363 0.1423
364 0.1344
365 0.145
366 0.1665
367 0.1773
368 0.171
369 0.1526
370 0.1795
371 0.1592
372 0.1842
373 0.1522
374 0.1314
375 0.1341
376 0.1612
377 0.1582
378 0.1907
379 0.2048
380 0.1566
381 0.1834
382 0.1667
383 0.1196
384 0.09968
385 0.1446
386 0.1522
387 0.1541
388 0.1506
389 0.1448
390 0.1852
391 0.1896
392 0.2207
393 0.167
394 0.07273
395 0.1684
396 0.2179
397 0.1158
398 0.1303
399 0.2483
400 0.2671
401 0.2684
402 0.292
403 0.2967
404 0.2906
405 0.284
406 0.2761
407 0.269
408 0.2728
409 0.2766
410 0.2791
411 0.2586
412 0.2692
413 0.2798
414 0.2905
415 0.2917
416 0.2924
417 0.2962
418 0.2904
419 0.2903
420 0.2906
421 0.2978
422 0.3036
423 0.2933
424 0.2898
425 0.2969
426 0.2949
427 0.2937
428 0.2829
429 0.2828
430 0.2567
431 0.2144
432 0.2657
433 0.2937
434 0.29
435 0.284
436 0.3054
437 0.3226
438 0.3128
439 0.3008
440 0.3135
441 0.3273
442 0.3398
443 0.3504
444 0.3515
445 0.352
446 0.3462
447 0.3442
448 0.3645
449 0.3692
450 0.3731
451 0.3901
452 0.3921
453 0.3739
454 0.3645
455 0.3815
456 0.3843
457 0.395
458 0.3954
459 0.3859
460 0.3837
461 0.39
462 0.3964
463 0.4004
464 0.3962
465 0.3877
466 0.388
467 0.3851
468 0.3833
469 0.3905
470 0.3878
471 0.3825
472 0.3922
473 0.4046
474 0.3996
475 0.4086
476 0.4087
477 0.4034
478 0.4142
479 0.4144
480 0.4144
481 0.4127
482 0.4161
483 0.4126
484 0.4075
485 0.403
486 0.3669
487 0.3468
488 0.3757
489 0.3877
490 0.4039
491 0.41
492 0.3959
493 0.3953
494 0.4004
495 0.4103
496 0.4108
497 0.4096
498 0.4067
499 0.4003
500 0.4
501 0.394
502 0.3864
503 0.395
504 0.4028
505 0.4015
506 0.4166
507 0.4234
508 0.4176
509 0.4117
510 0.4055
511 0.4014
512 0.4097
513 0.4056
514 0.3962
515 0.3915
516 0.3978
517 0.3707
518 0.3489
519 0.3624
520 0.3882
521 0.3958
522 0.4034
523 0.3956
524 0.403
525 0.4156
526 0.4114
527 0.377
528 0.3863
529 0.4115
530 0.4159
531 0.4223
532 0.4235
533 0.4191
534 0.4136
535 0.4153
536 0.428
537 0.4187
538 0.419
539 0.4222
540 0.413
541 0.4052
542 0.4144
543 0.4196
544 0.4235
545 0.4276
546 0.4291
547 0.4295
548 0.4249
549 0.4274
550 0.4328
551 0.431
552 0.433
553 0.4327
554 0.4318
555 0.4366
556 0.4348
557 0.4263
558 0.4215
559 0.4164
560 0.4111
561 0.4215
562 0.4258
563 0.4213
564 0.4237
565 0.4252
566 0.4219
567 0.4225
568 0.4304
569 0.4273
570 0.4266
571 0.4227
572 0.4238
573 0.4406
574 0.4432
575 0.4398
576 0.4337
577 0.4359
578 0.4371
579 0.4316
580 0.4353
581 0.4396
582 0.4421
583 0.4469
584 0.4477
585 0.4449
586 0.4373
587 0.4368
588 0.4432
589 0.4266
590 0.4089
591 0.429
592 0.4395
593 0.4409
594 0.4407
595 0.4425
596 0.4409
597 0.4444
598 0.4443
599 0.4406
600 0.442
601 0.4397
602 0.435
603 0.4373
604 0.4457
605 0.4478
606 0.4457
607 0.4445
608 0.4431
609 0.4394
610 0.4374
611 0.438
612 0.4391
613 0.4375
614 0.4325
615 0.4325
616 0.4295
617 0.4219
618 0.4289
619 0.4357
620 0.4389
621 0.4433
622 0.4406
623 0.4383
624 0.4363
625 0.4328
626 0.4316
627 0.4405
628 0.4463
629 0.447
630 0.4423
631 0.4406
632 0.4347
633 0.4405
634 0.4385
635 0.4404
636 0.4406
637 0.4398
638 0.4463
639 0.4465
640 0.4379
641 0.4349
642 0.4335
643 0.4385
644 0.4374
645 0.4384
646 0.435
647 0.4359
648 0.4394
649 0.4385
650 0.4259
651 0.4414
652 0.444
653 0.438
654 0.4347
655 0.4283
656 0.4004
657 0.3682
658 0.4078
659 0.4279
660 0.4297
661 0.4337
662 0.4365
663 0.4354
664 0.4305
665 0.432
666 0.4334
667 0.4313
668 0.4305
669 0.4335
670 0.4327
671 0.4314
672 0.4297
673 0.4287
674 0.4282
675 0.4277
676 0.4273
677 0.4269
678 0.4265
679 0.4263
680 0.426
681 0.4258
682 0.4257
683 0.4256
684 0.4255
685 0.4256
686 0.4256
687 0.4257
688 0.4259
689 0.4268
690 0.4293
691 0.4303
692 0.4283
693 0.427
694 0.428
695 0.4259
696 0.4257
697 0.4272
698 0.4217
699 0.427
700 0.4284
701 0.4228
702 0.4203
703 0.4223
704 0.4246
705 0.4291
706 0.4266
707 0.4217
708 0.4224
709 0.4188
710 0.4162
711 0.4181
712 0.4126
713 0.4112
714 0.4123
715 0.4117
716 0.4104
717 0.4124
718 0.4121
719 0.4069
720 0.4073
721 0.4083
722 0.4086
723 0.4083
724 0.4103
725 0.4094
726 0.4062
727 0.4075
728 0.4069
729 0.3996
730 0.3981
731 0.4056
732 0.4048
733 0.4048
734 0.405
735 0.4053
736 0.4012
737 0.4002
738 0.3999
739 0.3911
740 0.3918
741 0.3898
742 0.3871
743 0.3931
744 0.3991
745 0.3952
746 0.3996
747 0.3982
748 0.3998
749 0.3977
750 0.3933
