# Top-of-atmosphere (TOA) lunar irradiance from Miller and Turner (2009) by 10 nm increments
# First column wavelength (nm), second column TOA irradiance# Phase angle = 162
# Units = mW/m^2-micrometer

300 0.3931
310 0.3911
320 0.5919
330 0.9609
340 0.8639
350 0.7963
360 1.049
370 1.263
380 1.099
390 1.297
400 1.867
410 1.946
420 2.022
430 1.782
440 2.172
450 2.579
460 2.647
470 2.669
480 2.846
490 2.768
500 2.735
510 2.767
520 2.643
530 2.825
540 2.799
550 2.927
560 2.774
570 2.872
580 2.924
590 2.741
600 2.957
610 2.919
620 2.923
630 2.939
640 2.904
650 2.818
660 2.836
670 2.85
680 2.8
690 2.815
700 2.803
710 2.718
720 2.653
730 2.588
740 2.542
750 2.546
