# Top-of-atmosphere (TOA) lunar irradiance from Miller and Turner (2009) by 10 nm increments
# First column wavelength (nm), second column TOA irradiance# Phase angle = 164
# Units = mW/m^2-micrometer

300 0.4146
310 0.4125
320 0.6241
330 1.013
340 0.9107
350 0.8393
360 1.106
370 1.331
380 1.158
390 1.367
400 1.967
410 2.05
420 2.13
430 1.877
440 2.287
450 2.715
460 2.786
470 2.809
480 2.995
490 2.912
500 2.878
510 2.91
520 2.78
530 2.971
540 2.944
550 3.078
560 2.917
570 3.019
580 3.073
590 2.88
600 3.107
610 3.067
620 3.07
630 3.087
640 3.049
650 2.959
660 2.978
670 2.992
680 2.939
690 2.955
700 2.942
710 2.852
720 2.784
730 2.714
740 2.666
750 2.67
