# Top-of-atmosphere (TOA) lunar irradiance from Miller and Turner (2009)
# First column wavelength (nm), second column TOA irradiance# Lunar phase angle: 168
# Irradiance units: mW/m^2-micrometer

300 0.4612
301 0.3429
302 0.4316
303 0.4124
304 0.5831
305 0.543
306 0.5542
307 0.5125
308 0.5959
309 0.6009
310 0.4587
311 0.6093
312 0.7227
313 0.6276
314 0.6807
315 0.6253
316 0.6437
317 0.5883
318 0.819
319 0.6297
320 0.6939
321 0.857
322 0.6798
323 0.7123
324 0.6641
325 0.7957
326 0.8911
327 1.016
328 0.9859
329 0.9164
330 1.126
331 1.04
332 1.029
333 0.9985
334 0.9565
335 1.023
336 1.042
337 0.8251
338 0.9056
339 0.972
340 1.012
341 1.118
342 0.9798
343 1.09
344 1.095
345 0.7902
346 1.078
347 1.001
348 0.9924
349 1.035
350 0.9325
351 1.232
352 1.099
353 0.9846
354 1.188
355 1.264
356 1.185
357 1.059
358 0.9619
359 0.718
360 1.228
361 1.158
362 1.027
363 1.174
364 1.108
365 1.196
366 1.372
367 1.46
368 1.408
369 1.256
370 1.478
371 1.31
372 1.516
373 1.252
374 1.081
375 1.103
376 1.325
377 1.3
378 1.567
379 1.682
380 1.286
381 1.506
382 1.368
383 0.9814
384 0.8177
385 1.186
386 1.248
387 1.263
388 1.234
389 1.187
390 1.517
391 1.552
392 1.807
393 1.366
394 0.5951
395 1.378
396 1.782
397 0.9472
398 1.065
399 2.029
400 2.182
401 2.192
402 2.385
403 2.422
404 2.372
405 2.317
406 2.252
407 2.194
408 2.224
409 2.255
410 2.274
411 2.107
412 2.192
413 2.278
414 2.365
415 2.374
416 2.379
417 2.41
418 2.362
419 2.36
420 2.362
421 2.42
422 2.466
423 2.382
424 2.353
425 2.41
426 2.393
427 2.383
428 2.294
429 2.293
430 2.081
431 1.737
432 2.153
433 2.379
434 2.348
435 2.299
436 2.472
437 2.611
438 2.531
439 2.433
440 2.535
441 2.646
442 2.747
443 2.831
444 2.84
445 2.842
446 2.795
447 2.778
448 2.941
449 2.978
450 3.009
451 3.145
452 3.161
453 3.013
454 2.937
455 3.073
456 3.095
457 3.18
458 3.182
459 3.105
460 3.087
461 3.136
462 3.187
463 3.219
464 3.184
465 3.115
466 3.116
467 3.093
468 3.077
469 3.134
470 3.112
471 3.068
472 3.145
473 3.244
474 3.203
475 3.275
476 3.274
477 3.231
478 3.317
479 3.317
480 3.316
481 3.302
482 3.328
483 3.299
484 3.258
485 3.221
486 2.932
487 2.771
488 3.001
489 3.096
490 3.224
491 3.272
492 3.159
493 3.153
494 3.193
495 3.271
496 3.274
497 3.264
498 3.24
499 3.188
500 3.185
501 3.136
502 3.075
503 3.142
504 3.204
505 3.192
506 3.312
507 3.365
508 3.318
509 3.27
510 3.22
511 3.187
512 3.252
513 3.219
514 3.143
515 3.105
516 3.154
517 2.938
518 2.765
519 2.871
520 3.075
521 3.134
522 3.194
523 3.132
524 3.189
525 3.288
526 3.254
527 2.981
528 3.054
529 3.252
530 3.286
531 3.335
532 3.344
533 3.309
534 3.265
535 3.277
536 3.376
537 3.302
538 3.304
539 3.328
540 3.255
541 3.192
542 3.264
543 3.304
544 3.334
545 3.366
546 3.376
547 3.379
548 3.342
549 3.36
550 3.402
551 3.387
552 3.401
553 3.398
554 3.39
555 3.427
556 3.412
557 3.344
558 3.306
559 3.265
560 3.223
561 3.304
562 3.336
563 3.3
564 3.319
565 3.329
566 3.302
567 3.306
568 3.367
569 3.342
570 3.336
571 3.305
572 3.312
573 3.443
574 3.462
575 3.435
576 3.386
577 3.402
578 3.411
579 3.367
580 3.395
581 3.428
582 3.446
583 3.483
584 3.489
585 3.465
586 3.405
587 3.401
588 3.45
589 3.32
590 3.181
591 3.336
592 3.418
593 3.427
594 3.425
595 3.438
596 3.425
597 3.451
598 3.449
599 3.42
600 3.43
601 3.411
602 3.373
603 3.39
604 3.455
605 3.47
606 3.453
607 3.443
608 3.431
609 3.401
610 3.385
611 3.389
612 3.397
613 3.383
614 3.344
615 3.343
616 3.319
617 3.26
618 3.313
619 3.365
620 3.388
621 3.421
622 3.4
623 3.381
624 3.364
625 3.336
626 3.327
627 3.395
628 3.439
629 3.443
630 3.405
631 3.392
632 3.345
633 3.389
634 3.373
635 3.386
636 3.387
637 3.38
638 3.429
639 3.43
640 3.363
641 3.339
642 3.327
643 3.365
644 3.356
645 3.362
646 3.336
647 3.342
648 3.368
649 3.36
650 3.263
651 3.38
652 3.399
653 3.352
654 3.327
655 3.276
656 3.062
657 2.815
658 3.117
659 3.27
660 3.283
661 3.313
662 3.334
663 3.324
664 3.286
665 3.296
666 3.306
667 3.289
668 3.282
669 3.305
670 3.298
671 3.287
672 3.273
673 3.264
674 3.26
675 3.255
676 3.251
677 3.247
678 3.244
679 3.241
680 3.238
681 3.236
682 3.234
683 3.233
684 3.231
685 3.231
686 3.23
687 3.23
688 3.23
689 3.237
690 3.255
691 3.261
692 3.246
693 3.235
694 3.242
695 3.225
696 3.223
697 3.233
698 3.19
699 3.23
700 3.24
701 3.197
702 3.177
703 3.191
704 3.207
705 3.241
706 3.221
707 3.183
708 3.188
709 3.16
710 3.14
711 3.153
712 3.11
713 3.099
714 3.107
715 3.101
716 3.091
717 3.105
718 3.102
719 3.062
720 3.064
721 3.071
722 3.073
723 3.07
724 3.083
725 3.076
726 3.051
727 3.06
728 3.055
729 2.999
730 2.987
731 3.043
732 3.036
733 3.035
734 3.036
735 3.038
736 3.006
737 2.998
738 2.995
739 2.928
740 2.933
741 2.917
742 2.896
743 2.94
744 2.984
745 2.954
746 2.986
747 2.975
748 2.986
749 2.97
750 2.937
