# Top-of-atmosphere (TOA) lunar irradiance from Miller and Turner (2009) by 10 nm increments
# First column wavelength (nm), second column TOA irradiance# Phase angle = 147
# Units = mW/m^2-micrometer

300 0.265
310 0.2639
320 0.3997
330 0.6496
340 0.5845
350 0.5393
360 0.7113
370 0.857
380 0.7465
390 0.8819
400 1.27
410 1.325
420 1.378
430 1.216
440 1.483
450 1.763
460 1.811
470 1.828
480 1.95
490 1.898
500 1.878
510 1.901
520 1.818
530 1.945
540 1.929
550 2.019
560 1.915
570 1.985
580 2.023
590 1.897
600 2.049
610 2.025
620 2.029
630 2.042
640 2.019
650 1.961
660 1.976
670 1.988
680 1.954
690 1.967
700 1.96
710 1.902
720 1.859
730 1.814
740 1.784
750 1.788
