# Top-of-atmosphere (TOA) lunar irradiance from Miller and Turner (2009) by 10 nm increments
# First column wavelength (nm), second column TOA irradiance# Phase angle = 165
# Units = mW/m^2-micrometer

300 0.4258
310 0.4236
320 0.6409
330 1.04
340 0.9351
350 0.8617
360 1.135
370 1.366
380 1.189
390 1.403
400 2.018
410 2.104
420 2.186
430 1.926
440 2.346
450 2.786
460 2.858
470 2.882
480 3.072
490 2.987
500 2.952
510 2.985
520 2.851
530 3.047
540 3.019
550 3.156
560 2.99
570 3.095
580 3.151
590 2.953
600 3.184
610 3.144
620 3.147
630 3.164
640 3.125
650 3.032
660 3.051
670 3.066
680 3.011
690 3.027
700 3.014
710 2.921
720 2.851
730 2.78
740 2.73
750 2.734
