# Top-of-atmosphere (TOA) lunar irradiance from Miller and Turner (2009) by 10 nm increments
# First column wavelength (nm), second column TOA irradiance# Phase angle = 137
# Units = mW/m^2-micrometer

300 0.2047
310 0.2039
320 0.309
330 0.5025
340 0.4524
350 0.4176
360 0.551
370 0.6643
380 0.5789
390 0.6843
400 0.9861
410 1.029
420 1.071
430 0.9454
440 1.154
450 1.372
460 1.41
470 1.424
480 1.52
490 1.481
500 1.466
510 1.484
520 1.42
530 1.52
540 1.509
550 1.58
560 1.499
570 1.554
580 1.585
590 1.488
600 1.607
610 1.589
620 1.593
630 1.604
640 1.587
650 1.543
660 1.555
670 1.565
680 1.539
690 1.55
700 1.546
710 1.501
720 1.467
730 1.433
740 1.409
750 1.414
