# Top-of-atmosphere (TOA) lunar irradiance from Miller and Turner (2009)
# First column wavelength (nm), second column TOA irradiance# Lunar phase angle: 146
# Irradiance units: mW/m^2-micrometer

300 0.258
301 0.1919
302 0.2416
303 0.2308
304 0.3264
305 0.304
306 0.3103
307 0.287
308 0.3338
309 0.3366
310 0.257
311 0.3414
312 0.405
313 0.3517
314 0.3816
315 0.3506
316 0.3609
317 0.3299
318 0.4593
319 0.3532
320 0.3893
321 0.4809
322 0.3815
323 0.3997
324 0.3728
325 0.4467
326 0.5003
327 0.5703
328 0.5537
329 0.5148
330 0.6326
331 0.5841
332 0.5783
333 0.5612
334 0.5376
335 0.575
336 0.5861
337 0.4639
338 0.5093
339 0.5467
340 0.5693
341 0.6288
342 0.5513
343 0.6134
344 0.6166
345 0.4448
346 0.607
347 0.5634
348 0.5589
349 0.5827
350 0.5253
351 0.6942
352 0.6195
353 0.5548
354 0.6696
355 0.7124
356 0.668
357 0.5972
358 0.5424
359 0.405
360 0.6929
361 0.6535
362 0.5792
363 0.6622
364 0.6253
365 0.6748
366 0.7746
367 0.8246
368 0.7952
369 0.7095
370 0.8349
371 0.7402
372 0.8563
373 0.7074
374 0.6107
375 0.6232
376 0.749
377 0.7351
378 0.886
379 0.9512
380 0.7273
381 0.8516
382 0.7742
383 0.5553
384 0.4628
385 0.6711
386 0.7063
387 0.7152
388 0.6987
389 0.672
390 0.8593
391 0.8793
392 1.024
393 0.7742
394 0.3372
395 0.7808
396 1.01
397 0.5369
398 0.6037
399 1.151
400 1.238
401 1.243
402 1.353
403 1.374
404 1.346
405 1.315
406 1.278
407 1.245
408 1.263
409 1.28
410 1.291
411 1.196
412 1.245
413 1.294
414 1.344
415 1.349
416 1.352
417 1.37
418 1.343
419 1.342
420 1.343
421 1.376
422 1.403
423 1.355
424 1.339
425 1.371
426 1.362
427 1.356
428 1.306
429 1.306
430 1.185
431 0.9895
432 1.226
433 1.355
434 1.338
435 1.31
436 1.409
437 1.488
438 1.443
439 1.387
440 1.445
441 1.509
442 1.567
443 1.615
444 1.62
445 1.622
446 1.595
447 1.585
448 1.679
449 1.7
450 1.718
451 1.796
452 1.805
453 1.721
454 1.678
455 1.756
456 1.768
457 1.817
458 1.819
459 1.775
460 1.765
461 1.793
462 1.823
463 1.841
464 1.821
465 1.782
466 1.783
467 1.77
468 1.762
469 1.794
470 1.782
471 1.757
472 1.801
473 1.858
474 1.835
475 1.876
476 1.876
477 1.852
478 1.901
479 1.902
480 1.901
481 1.893
482 1.909
483 1.892
484 1.869
485 1.848
486 1.682
487 1.59
488 1.722
489 1.777
490 1.851
491 1.879
492 1.814
493 1.811
494 1.834
495 1.879
496 1.881
497 1.876
498 1.862
499 1.833
500 1.831
501 1.803
502 1.768
503 1.807
504 1.843
505 1.837
506 1.906
507 1.936
508 1.909
509 1.882
510 1.854
511 1.835
512 1.872
513 1.854
514 1.81
515 1.789
516 1.817
517 1.693
518 1.593
519 1.655
520 1.773
521 1.807
522 1.842
523 1.806
524 1.839
525 1.896
526 1.877
527 1.72
528 1.762
529 1.877
530 1.897
531 1.925
532 1.931
533 1.911
534 1.885
535 1.893
536 1.95
537 1.908
538 1.909
539 1.923
540 1.881
541 1.845
542 1.887
543 1.911
544 1.928
545 1.947
546 1.953
547 1.955
548 1.934
549 1.944
550 1.969
551 1.961
552 1.969
553 1.968
554 1.963
555 1.985
556 1.977
557 1.938
558 1.915
559 1.892
560 1.868
561 1.915
562 1.934
563 1.913
564 1.924
565 1.931
566 1.916
567 1.918
568 1.954
569 1.94
570 1.936
571 1.918
572 1.923
573 1.999
574 2.01
575 1.995
576 1.967
577 1.976
578 1.982
579 1.956
580 1.973
581 1.992
582 2.003
583 2.025
584 2.028
585 2.015
586 1.981
587 1.978
588 2.007
589 1.932
590 1.851
591 1.942
592 1.989
593 1.995
594 1.994
595 2.002
596 1.995
597 2.01
598 2.009
599 1.993
600 1.999
601 1.988
602 1.966
603 1.976
604 2.014
605 2.024
606 2.014
607 2.008
608 2.002
609 1.984
610 1.975
611 1.978
612 1.983
613 1.975
614 1.952
615 1.952
616 1.938
617 1.904
618 1.935
619 1.966
620 1.98
621 1.999
622 1.987
623 1.976
624 1.967
625 1.951
626 1.945
627 1.985
628 2.011
629 2.014
630 1.992
631 1.985
632 1.958
633 1.984
634 1.974
635 1.983
636 1.983
637 1.98
638 2.009
639 2.009
640 1.971
641 1.957
642 1.95
643 1.972
644 1.967
645 1.971
646 1.956
647 1.96
648 1.975
649 1.971
650 1.914
651 1.983
652 1.995
653 1.967
654 1.953
655 1.923
656 1.798
657 1.653
658 1.831
659 1.921
660 1.929
661 1.946
662 1.959
663 1.954
664 1.931
665 1.938
666 1.944
667 1.934
668 1.93
669 1.944
670 1.94
671 1.934
672 1.926
673 1.921
674 1.919
675 1.916
676 1.914
677 1.912
678 1.91
679 1.909
680 1.908
681 1.906
682 1.906
683 1.905
684 1.905
685 1.904
686 1.904
687 1.905
688 1.905
689 1.909
690 1.92
691 1.924
692 1.915
693 1.909
694 1.913
695 1.903
696 1.902
697 1.909
698 1.884
699 1.908
700 1.914
701 1.888
702 1.877
703 1.886
704 1.896
705 1.916
706 1.904
707 1.882
708 1.885
709 1.869
710 1.857
711 1.865
712 1.84
713 1.834
714 1.839
715 1.836
716 1.829
717 1.838
718 1.837
719 1.813
720 1.815
721 1.819
722 1.82
723 1.819
724 1.827
725 1.823
726 1.809
727 1.814
728 1.811
729 1.778
730 1.772
731 1.805
732 1.801
733 1.801
734 1.802
735 1.803
736 1.784
737 1.78
738 1.778
739 1.739
740 1.742
741 1.733
742 1.72
743 1.747
744 1.773
745 1.756
746 1.775
747 1.769
748 1.775
749 1.766
750 1.746
