# Top-of-atmosphere (TOA) lunar irradiance from Miller and Turner (2009) by 10 nm increments
# First column wavelength (nm), second column TOA irradiance# Phase angle = 142
# Units = mW/m^2-micrometer

300 0.232
310 0.2311
320 0.3502
330 0.5692
340 0.5124
350 0.4729
360 0.6239
370 0.752
380 0.6552
390 0.7743
400 1.116
410 1.164
420 1.211
430 1.069
440 1.304
450 1.551
460 1.593
470 1.609
480 1.717
490 1.672
500 1.655
510 1.676
520 1.603
530 1.715
540 1.702
550 1.782
560 1.691
570 1.752
580 1.786
590 1.676
600 1.811
610 1.79
620 1.794
630 1.806
640 1.787
650 1.736
660 1.75
670 1.761
680 1.731
690 1.743
700 1.738
710 1.687
720 1.649
730 1.61
740 1.583
750 1.588
