# Top-of-atmosphere (TOA) lunar irradiance from Miller and Turner (2009)
# First column wavelength (nm), second column TOA irradiance# Lunar phase angle: 137
# Irradiance units: mW/m^2-micrometer

300 0.2047
301 0.1522
302 0.1916
303 0.1831
304 0.2589
305 0.2412
306 0.2462
307 0.2277
308 0.2648
309 0.2671
310 0.2039
311 0.2709
312 0.3214
313 0.2791
314 0.3028
315 0.2782
316 0.2865
317 0.2618
318 0.3646
319 0.2804
320 0.309
321 0.3818
322 0.3028
323 0.3174
324 0.296
325 0.3547
326 0.3973
327 0.4529
328 0.4397
329 0.4088
330 0.5025
331 0.4639
332 0.4594
333 0.4457
334 0.427
335 0.4568
336 0.4656
337 0.3686
338 0.4047
339 0.4344
340 0.4524
341 0.4996
342 0.4381
343 0.4875
344 0.49
345 0.3535
346 0.4824
347 0.4478
348 0.4442
349 0.4632
350 0.4176
351 0.5518
352 0.4925
353 0.4411
354 0.5324
355 0.5665
356 0.5312
357 0.4749
358 0.4313
359 0.322
360 0.551
361 0.5198
362 0.4607
363 0.5267
364 0.4974
365 0.5368
366 0.6162
367 0.656
368 0.6327
369 0.5645
370 0.6643
371 0.589
372 0.6813
373 0.5629
374 0.486
375 0.4959
376 0.5961
377 0.5851
378 0.7052
379 0.7571
380 0.5789
381 0.6779
382 0.6163
383 0.4421
384 0.3684
385 0.5344
386 0.5623
387 0.5695
388 0.5564
389 0.5351
390 0.6843
391 0.7003
392 0.8154
393 0.6167
394 0.2686
395 0.6219
396 0.8046
397 0.4277
398 0.4809
399 0.9167
400 0.9861
401 0.9907
402 1.078
403 1.095
404 1.072
405 1.048
406 1.019
407 0.9924
408 1.006
409 1.021
410 1.029
411 0.9538
412 0.9927
413 1.032
414 1.071
415 1.076
416 1.078
417 1.092
418 1.071
419 1.07
420 1.071
421 1.098
422 1.119
423 1.081
424 1.068
425 1.094
426 1.086
427 1.082
428 1.042
429 1.042
430 0.9454
431 0.7895
432 0.9784
433 1.081
434 1.068
435 1.046
436 1.124
437 1.188
438 1.151
439 1.107
440 1.154
441 1.204
442 1.251
443 1.289
444 1.293
445 1.295
446 1.274
447 1.266
448 1.341
449 1.358
450 1.372
451 1.434
452 1.442
453 1.375
454 1.34
455 1.402
456 1.413
457 1.452
458 1.453
459 1.418
460 1.41
461 1.433
462 1.456
463 1.471
464 1.455
465 1.424
466 1.425
467 1.415
468 1.408
469 1.434
470 1.424
471 1.404
472 1.44
473 1.485
474 1.467
475 1.5
476 1.5
477 1.48
478 1.52
479 1.521
480 1.52
481 1.514
482 1.526
483 1.513
484 1.495
485 1.478
486 1.346
487 1.272
488 1.378
489 1.422
490 1.481
491 1.503
492 1.451
493 1.449
494 1.468
495 1.504
496 1.505
497 1.501
498 1.49
499 1.467
500 1.466
501 1.443
502 1.415
503 1.447
504 1.475
505 1.47
506 1.526
507 1.55
508 1.529
509 1.507
510 1.484
511 1.469
512 1.499
513 1.484
514 1.45
515 1.433
516 1.455
517 1.356
518 1.276
519 1.326
520 1.42
521 1.448
522 1.475
523 1.447
524 1.474
525 1.52
526 1.504
527 1.378
528 1.412
529 1.504
530 1.52
531 1.543
532 1.548
533 1.532
534 1.511
535 1.517
536 1.564
537 1.529
538 1.531
539 1.542
540 1.509
541 1.48
542 1.513
543 1.532
544 1.546
545 1.561
546 1.566
547 1.568
548 1.551
549 1.56
550 1.58
551 1.573
552 1.58
553 1.579
554 1.575
555 1.593
556 1.586
557 1.555
558 1.537
559 1.519
560 1.499
561 1.537
562 1.552
563 1.536
564 1.545
565 1.55
566 1.538
567 1.54
568 1.568
569 1.557
570 1.554
571 1.54
572 1.544
573 1.605
574 1.614
575 1.602
576 1.58
577 1.588
578 1.592
579 1.572
580 1.585
581 1.6
582 1.609
583 1.627
584 1.63
585 1.619
586 1.591
587 1.59
588 1.613
589 1.552
590 1.488
591 1.561
592 1.599
593 1.604
594 1.603
595 1.609
596 1.604
597 1.616
598 1.615
599 1.602
600 1.607
601 1.599
602 1.581
603 1.589
604 1.62
605 1.627
606 1.62
607 1.615
608 1.61
609 1.596
610 1.589
611 1.591
612 1.595
613 1.589
614 1.571
615 1.571
616 1.56
617 1.532
618 1.557
619 1.582
620 1.593
621 1.609
622 1.599
623 1.591
624 1.583
625 1.57
626 1.566
627 1.598
628 1.619
629 1.621
630 1.604
631 1.598
632 1.577
633 1.597
634 1.59
635 1.597
636 1.597
637 1.594
638 1.618
639 1.618
640 1.587
641 1.576
642 1.571
643 1.589
644 1.585
645 1.588
646 1.576
647 1.579
648 1.592
649 1.588
650 1.543
651 1.598
652 1.608
653 1.586
654 1.574
655 1.55
656 1.449
657 1.333
658 1.476
659 1.549
660 1.555
661 1.569
662 1.58
663 1.575
664 1.557
665 1.563
666 1.568
667 1.56
668 1.557
669 1.568
670 1.565
671 1.56
672 1.554
673 1.55
674 1.548
675 1.546
676 1.544
677 1.543
678 1.542
679 1.54
680 1.539
681 1.539
682 1.538
683 1.538
684 1.537
685 1.537
686 1.537
687 1.537
688 1.538
689 1.541
690 1.55
691 1.553
692 1.546
693 1.542
694 1.545
695 1.537
696 1.536
697 1.542
698 1.522
699 1.541
700 1.546
701 1.525
702 1.516
703 1.523
704 1.531
705 1.548
706 1.538
707 1.521
708 1.523
709 1.51
710 1.501
711 1.507
712 1.487
713 1.482
714 1.486
715 1.484
716 1.479
717 1.486
718 1.485
719 1.466
720 1.467
721 1.471
722 1.472
723 1.471
724 1.478
725 1.474
726 1.463
727 1.467
728 1.465
729 1.438
730 1.433
731 1.46
732 1.457
733 1.457
734 1.457
735 1.458
736 1.444
737 1.44
738 1.439
739 1.407
740 1.409
741 1.402
742 1.392
743 1.414
744 1.435
745 1.421
746 1.437
747 1.432
748 1.437
749 1.429
750 1.414
