# Top-of-atmosphere (TOA) lunar irradiance from Miller and Turner (2009)
# First column wavelength (nm), second column TOA irradiance# Lunar phase angle: 155
# Irradiance units: mW/m^2-micrometer

300 0.3271
301 0.2432
302 0.3061
303 0.2925
304 0.4136
305 0.3852
306 0.3932
307 0.3636
308 0.4228
309 0.4264
310 0.3256
311 0.4325
312 0.513
313 0.4455
314 0.4832
315 0.444
316 0.4571
317 0.4177
318 0.5816
319 0.4472
320 0.4929
321 0.6088
322 0.4829
323 0.506
324 0.4718
325 0.5654
326 0.6332
327 0.7218
328 0.7007
329 0.6514
330 0.8005
331 0.739
332 0.7317
333 0.7099
334 0.6801
335 0.7274
336 0.7414
337 0.5868
338 0.6442
339 0.6914
340 0.72
341 0.7952
342 0.6972
343 0.7756
344 0.7796
345 0.5624
346 0.7674
347 0.7122
348 0.7065
349 0.7366
350 0.6639
351 0.8773
352 0.7829
353 0.7012
354 0.8461
355 0.9002
356 0.8441
357 0.7545
358 0.6853
359 0.5116
360 0.8753
361 0.8255
362 0.7316
363 0.8364
364 0.7898
365 0.8522
366 0.9782
367 1.041
368 1.004
369 0.8958
370 1.054
371 0.9345
372 1.081
373 0.893
374 0.7709
375 0.7865
376 0.9453
377 0.9278
378 1.118
379 1.2
380 0.9177
381 1.075
382 0.9768
383 0.7006
384 0.5838
385 0.8466
386 0.8909
387 0.9022
388 0.8813
389 0.8476
390 1.084
391 1.109
392 1.291
393 0.9763
394 0.4252
395 0.9844
396 1.273
397 0.6769
398 0.761
399 1.45
400 1.56
401 1.567
402 1.705
403 1.732
404 1.696
405 1.657
406 1.611
407 1.569
408 1.591
409 1.613
410 1.627
411 1.507
412 1.569
413 1.63
414 1.692
415 1.699
416 1.703
417 1.725
418 1.691
419 1.69
420 1.691
421 1.733
422 1.766
423 1.706
424 1.685
425 1.726
426 1.714
427 1.707
428 1.644
429 1.643
430 1.491
431 1.245
432 1.543
433 1.705
434 1.683
435 1.648
436 1.772
437 1.872
438 1.815
439 1.745
440 1.818
441 1.898
442 1.97
443 2.031
444 2.037
445 2.039
446 2.006
447 1.993
448 2.111
449 2.138
450 2.16
451 2.258
452 2.269
453 2.163
454 2.109
455 2.206
456 2.222
457 2.284
458 2.285
459 2.23
460 2.217
461 2.253
462 2.29
463 2.313
464 2.288
465 2.238
466 2.239
467 2.223
468 2.212
469 2.253
470 2.237
471 2.206
472 2.261
473 2.332
474 2.303
475 2.355
476 2.355
477 2.324
478 2.386
479 2.386
480 2.386
481 2.376
482 2.395
483 2.374
484 2.345
485 2.318
486 2.11
487 1.995
488 2.16
489 2.229
490 2.321
491 2.356
492 2.275
493 2.271
494 2.3
495 2.356
496 2.359
497 2.352
498 2.334
499 2.297
500 2.295
501 2.26
502 2.216
503 2.265
504 2.309
505 2.302
506 2.388
507 2.426
508 2.393
509 2.358
510 2.323
511 2.299
512 2.346
513 2.322
514 2.267
515 2.24
516 2.276
517 2.12
518 1.995
519 2.072
520 2.22
521 2.262
522 2.306
523 2.261
524 2.302
525 2.374
526 2.349
527 2.153
528 2.205
529 2.349
530 2.374
531 2.409
532 2.416
533 2.391
534 2.359
535 2.368
536 2.44
537 2.386
538 2.388
539 2.406
540 2.353
541 2.308
542 2.36
543 2.389
544 2.411
545 2.434
546 2.442
547 2.444
548 2.417
549 2.431
550 2.462
551 2.451
552 2.461
553 2.459
554 2.454
555 2.481
556 2.47
557 2.421
558 2.393
559 2.364
560 2.334
561 2.393
562 2.416
563 2.39
564 2.404
565 2.412
566 2.392
567 2.396
568 2.44
569 2.422
570 2.417
571 2.395
572 2.401
573 2.496
574 2.51
575 2.49
576 2.455
577 2.467
578 2.474
579 2.442
580 2.462
581 2.486
582 2.5
583 2.527
584 2.531
585 2.514
586 2.471
587 2.468
588 2.504
589 2.41
590 2.309
591 2.422
592 2.481
593 2.488
594 2.487
595 2.496
596 2.487
597 2.506
598 2.505
599 2.484
600 2.492
601 2.478
602 2.451
603 2.464
604 2.511
605 2.522
606 2.51
607 2.502
608 2.494
609 2.473
610 2.461
611 2.464
612 2.47
613 2.46
614 2.432
615 2.432
616 2.414
617 2.371
618 2.41
619 2.448
620 2.465
621 2.489
622 2.474
623 2.461
624 2.449
625 2.429
626 2.422
627 2.471
628 2.504
629 2.507
630 2.48
631 2.47
632 2.437
633 2.469
634 2.457
635 2.467
636 2.468
637 2.463
638 2.499
639 2.499
640 2.451
641 2.434
642 2.425
643 2.453
644 2.446
645 2.451
646 2.432
647 2.437
648 2.456
649 2.451
650 2.38
651 2.466
652 2.48
653 2.446
654 2.427
655 2.391
656 2.235
657 2.055
658 2.275
659 2.387
660 2.396
661 2.418
662 2.434
663 2.427
664 2.399
665 2.407
666 2.415
667 2.402
668 2.397
669 2.414
670 2.409
671 2.402
672 2.391
673 2.385
674 2.382
675 2.379
676 2.376
677 2.374
678 2.371
679 2.369
680 2.368
681 2.366
682 2.365
683 2.364
684 2.363
685 2.363
686 2.363
687 2.363
688 2.363
689 2.368
690 2.382
691 2.387
692 2.375
693 2.368
694 2.373
695 2.36
696 2.359
697 2.367
698 2.336
699 2.365
700 2.373
701 2.341
702 2.327
703 2.337
704 2.35
705 2.374
706 2.36
707 2.332
708 2.336
709 2.316
710 2.301
711 2.311
712 2.28
713 2.272
714 2.278
715 2.274
716 2.266
717 2.277
718 2.275
719 2.246
720 2.248
721 2.253
722 2.254
723 2.252
724 2.262
725 2.257
726 2.239
727 2.246
728 2.242
729 2.201
730 2.193
731 2.234
732 2.229
733 2.228
734 2.229
735 2.231
736 2.208
737 2.202
738 2.2
739 2.151
740 2.155
741 2.143
742 2.128
743 2.161
744 2.193
745 2.171
746 2.195
747 2.187
748 2.195
749 2.183
750 2.159
