# Top-of-atmosphere (TOA) lunar irradiance from Miller and Turner (2009)
# First column wavelength (nm), second column TOA irradiance# Lunar phase angle: 123
# Irradiance units: mW/m^2-micrometer

300 0.1464
301 0.1088
302 0.1371
303 0.131
304 0.1852
305 0.1725
306 0.1761
307 0.1629
308 0.1894
309 0.1911
310 0.1459
311 0.1938
312 0.23
313 0.1997
314 0.2167
315 0.1991
316 0.205
317 0.1874
318 0.2609
319 0.2007
320 0.2212
321 0.2732
322 0.2167
323 0.2271
324 0.2118
325 0.2539
326 0.2843
327 0.3242
328 0.3147
329 0.2926
330 0.3597
331 0.3321
332 0.3288
333 0.3191
334 0.3057
335 0.327
336 0.3333
337 0.2639
338 0.2897
339 0.311
340 0.3239
341 0.3578
342 0.3137
343 0.349
344 0.3509
345 0.2531
346 0.3455
347 0.3207
348 0.3181
349 0.3317
350 0.2991
351 0.3952
352 0.3527
353 0.3159
354 0.3813
355 0.4058
356 0.3805
357 0.3402
358 0.309
359 0.2307
360 0.3947
361 0.3723
362 0.33
363 0.3774
364 0.3564
365 0.3846
366 0.4415
367 0.47
368 0.4533
369 0.4045
370 0.476
371 0.4221
372 0.4883
373 0.4034
374 0.3483
375 0.3554
376 0.4272
377 0.4193
378 0.5054
379 0.5427
380 0.415
381 0.4859
382 0.4418
383 0.3169
384 0.2641
385 0.3831
386 0.4031
387 0.4083
388 0.3989
389 0.3837
390 0.4906
391 0.5021
392 0.5846
393 0.4421
394 0.1926
395 0.446
396 0.577
397 0.3067
398 0.3449
399 0.6574
400 0.7071
401 0.7105
402 0.773
403 0.7852
404 0.7691
405 0.7517
406 0.7308
407 0.7118
408 0.7219
409 0.7321
410 0.7384
411 0.6842
412 0.7122
413 0.7403
414 0.7685
415 0.7716
416 0.7736
417 0.7836
418 0.7681
419 0.7678
420 0.7686
421 0.7876
422 0.8029
423 0.7755
424 0.7662
425 0.785
426 0.7796
427 0.7764
428 0.7478
429 0.7475
430 0.6785
431 0.5666
432 0.7022
433 0.7762
434 0.7663
435 0.7506
436 0.807
437 0.8525
438 0.8265
439 0.7948
440 0.8283
441 0.8647
442 0.8978
443 0.9256
444 0.9286
445 0.9297
446 0.9145
447 0.909
448 0.9627
449 0.975
450 0.9853
451 1.03
452 1.035
453 0.9872
454 0.9625
455 1.007
456 1.015
457 1.043
458 1.044
459 1.019
460 1.013
461 1.029
462 1.046
463 1.057
464 1.046
465 1.023
466 1.024
467 1.016
468 1.011
469 1.03
470 1.023
471 1.009
472 1.035
473 1.067
474 1.054
475 1.078
476 1.078
477 1.064
478 1.092
479 1.093
480 1.093
481 1.088
482 1.097
483 1.088
484 1.074
485 1.062
486 0.9672
487 0.9142
488 0.9903
489 1.022
490 1.064
491 1.08
492 1.043
493 1.042
494 1.055
495 1.081
496 1.082
497 1.079
498 1.072
499 1.055
500 1.054
501 1.038
502 1.018
503 1.04
504 1.061
505 1.057
506 1.097
507 1.115
508 1.1
509 1.084
510 1.068
511 1.057
512 1.079
513 1.068
514 1.043
515 1.03
516 1.047
517 0.9755
518 0.9181
519 0.9537
520 1.022
521 1.041
522 1.061
523 1.041
524 1.06
525 1.093
526 1.082
527 0.9916
528 1.016
529 1.082
530 1.094
531 1.111
532 1.114
533 1.102
534 1.088
535 1.092
536 1.125
537 1.101
538 1.102
539 1.11
540 1.086
541 1.065
542 1.089
543 1.103
544 1.113
545 1.124
546 1.128
547 1.129
548 1.117
549 1.123
550 1.137
551 1.133
552 1.138
553 1.137
554 1.134
555 1.147
556 1.142
557 1.12
558 1.107
559 1.094
560 1.08
561 1.107
562 1.118
563 1.106
564 1.113
565 1.116
566 1.108
567 1.109
568 1.13
569 1.122
570 1.12
571 1.11
572 1.112
573 1.157
574 1.163
575 1.154
576 1.138
577 1.144
578 1.147
579 1.132
580 1.142
581 1.153
582 1.16
583 1.172
584 1.174
585 1.167
586 1.147
587 1.146
588 1.162
589 1.119
590 1.072
591 1.125
592 1.152
593 1.156
594 1.155
595 1.16
596 1.156
597 1.165
598 1.165
599 1.155
600 1.159
601 1.152
602 1.14
603 1.146
604 1.168
605 1.173
606 1.168
607 1.165
608 1.161
609 1.151
610 1.146
611 1.147
612 1.15
613 1.146
614 1.133
615 1.133
616 1.125
617 1.105
618 1.123
619 1.141
620 1.149
621 1.161
622 1.154
623 1.148
624 1.142
625 1.133
626 1.13
627 1.153
628 1.168
629 1.17
630 1.157
631 1.153
632 1.138
633 1.153
634 1.147
635 1.152
636 1.153
637 1.151
638 1.168
639 1.168
640 1.146
641 1.138
642 1.134
643 1.147
644 1.144
645 1.146
646 1.138
647 1.14
648 1.149
649 1.147
650 1.114
651 1.154
652 1.161
653 1.145
654 1.136
655 1.119
656 1.046
657 0.9623
658 1.066
659 1.118
660 1.123
661 1.133
662 1.141
663 1.138
664 1.125
665 1.129
666 1.132
667 1.127
668 1.124
669 1.132
670 1.13
671 1.127
672 1.122
673 1.119
674 1.118
675 1.117
676 1.116
677 1.115
678 1.114
679 1.113
680 1.112
681 1.112
682 1.111
683 1.111
684 1.111
685 1.111
686 1.111
687 1.111
688 1.111
689 1.114
690 1.12
691 1.123
692 1.117
693 1.114
694 1.117
695 1.111
696 1.11
697 1.114
698 1.1
699 1.114
700 1.117
701 1.103
702 1.096
703 1.101
704 1.107
705 1.119
706 1.112
707 1.099
708 1.101
709 1.092
710 1.085
711 1.09
712 1.075
713 1.072
714 1.075
715 1.073
716 1.069
717 1.075
718 1.074
719 1.06
720 1.061
721 1.064
722 1.065
723 1.064
724 1.069
725 1.066
726 1.058
727 1.061
728 1.06
729 1.041
730 1.037
731 1.056
732 1.054
733 1.054
734 1.054
735 1.055
736 1.045
737 1.042
738 1.041
739 1.018
740 1.02
741 1.015
742 1.007
743 1.023
744 1.039
745 1.028
746 1.04
747 1.036
748 1.04
749 1.035
750 1.023
