# Top-of-atmosphere (TOA) lunar irradiance from Miller and Turner (2009) by 10 nm increments
# First column wavelength (nm), second column TOA irradiance# Phase angle = 170
# Units = mW/m^2-micrometer

300 0.4864
310 0.4838
320 0.7317
330 1.187
340 1.067
350 0.9829
360 1.295
370 1.558
380 1.355
390 1.598
400 2.299
410 2.395
420 2.488
430 2.191
440 2.669
450 3.168
460 3.249
470 3.275
480 3.49
490 3.392
500 3.351
510 3.388
520 3.235
530 3.456
540 3.423
550 3.577
560 3.389
570 3.506
580 3.568
590 3.343
600 3.604
610 3.557
620 3.559
630 3.577
640 3.532
650 3.426
660 3.447
670 3.462
680 3.399
690 3.416
700 3.4
710 3.294
720 3.215
730 3.133
740 3.076
750 3.08
