# Top-of-atmosphere (TOA) lunar irradiance from Miller and Turner (2009)
# First column wavelength (nm), second column TOA irradiance# Lunar phase angle: 91
# Irradiance units: mW/m^2-micrometer

300 0.05908
301 0.04393
302 0.05532
303 0.05286
304 0.07477
305 0.06964
306 0.0711
307 0.06577
308 0.07649
309 0.07715
310 0.05891
311 0.07827
312 0.09286
313 0.08065
314 0.0875
315 0.08041
316 0.08279
317 0.07568
318 0.1054
319 0.08106
320 0.08934
321 0.1104
322 0.08756
323 0.09177
324 0.08559
325 0.1026
326 0.1149
327 0.131
328 0.1272
329 0.1183
330 0.1454
331 0.1342
332 0.1329
333 0.129
334 0.1236
335 0.1322
336 0.1348
337 0.1067
338 0.1171
339 0.1257
340 0.131
341 0.1447
342 0.1269
343 0.1411
344 0.1419
345 0.1024
346 0.1397
347 0.1297
348 0.1287
349 0.1342
350 0.121
351 0.1599
352 0.1427
353 0.1278
354 0.1543
355 0.1642
356 0.1539
357 0.1376
358 0.125
359 0.09336
360 0.1597
361 0.1507
362 0.1336
363 0.1527
364 0.1442
365 0.1557
366 0.1787
367 0.1903
368 0.1835
369 0.1638
370 0.1927
371 0.1709
372 0.1977
373 0.1633
374 0.141
375 0.1439
376 0.173
377 0.1698
378 0.2047
379 0.2198
380 0.1681
381 0.1968
382 0.1789
383 0.1284
384 0.107
385 0.1552
386 0.1633
387 0.1654
388 0.1616
389 0.1555
390 0.1988
391 0.2035
392 0.2369
393 0.1792
394 0.07806
395 0.1807
396 0.2339
397 0.1243
398 0.1398
399 0.2665
400 0.2867
401 0.288
402 0.3134
403 0.3184
404 0.3119
405 0.3048
406 0.2963
407 0.2887
408 0.2928
409 0.2969
410 0.2995
411 0.2775
412 0.2889
413 0.3003
414 0.3117
415 0.313
416 0.3138
417 0.3179
418 0.3116
419 0.3115
420 0.3119
421 0.3196
422 0.3258
423 0.3147
424 0.3109
425 0.3186
426 0.3164
427 0.3151
428 0.3035
429 0.3034
430 0.2754
431 0.23
432 0.2851
433 0.3151
434 0.3111
435 0.3047
436 0.3277
437 0.3462
438 0.3356
439 0.3227
440 0.3364
441 0.3512
442 0.3646
443 0.3759
444 0.3772
445 0.3776
446 0.3715
447 0.3692
448 0.3911
449 0.3961
450 0.4003
451 0.4185
452 0.4207
453 0.4011
454 0.3911
455 0.4093
456 0.4123
457 0.4238
458 0.4242
459 0.414
460 0.4117
461 0.4184
462 0.4252
463 0.4296
464 0.425
465 0.4159
466 0.4162
467 0.4132
468 0.4112
469 0.4189
470 0.4161
471 0.4103
472 0.4207
473 0.434
474 0.4286
475 0.4383
476 0.4384
477 0.4327
478 0.4444
479 0.4445
480 0.4445
481 0.4427
482 0.4463
483 0.4425
484 0.4372
485 0.4323
486 0.3936
487 0.372
488 0.403
489 0.4159
490 0.4332
491 0.4398
492 0.4247
493 0.424
494 0.4295
495 0.4401
496 0.4406
497 0.4394
498 0.4362
499 0.4294
500 0.4291
501 0.4225
502 0.4145
503 0.4236
504 0.432
505 0.4306
506 0.4468
507 0.4541
508 0.4478
509 0.4415
510 0.4349
511 0.4305
512 0.4394
513 0.435
514 0.4249
515 0.4198
516 0.4266
517 0.3975
518 0.3741
519 0.3886
520 0.4163
521 0.4244
522 0.4326
523 0.4243
524 0.4322
525 0.4457
526 0.4411
527 0.4042
528 0.4142
529 0.4412
530 0.446
531 0.4528
532 0.4541
533 0.4494
534 0.4436
535 0.4453
536 0.4589
537 0.4489
538 0.4493
539 0.4527
540 0.4429
541 0.4345
542 0.4444
543 0.4499
544 0.4541
545 0.4585
546 0.4601
547 0.4606
548 0.4556
549 0.4582
550 0.4641
551 0.4622
552 0.4642
553 0.4639
554 0.463
555 0.4681
556 0.4662
557 0.457
558 0.4519
559 0.4464
560 0.4408
561 0.452
562 0.4565
563 0.4517
564 0.4543
565 0.4559
566 0.4523
567 0.453
568 0.4614
569 0.4581
570 0.4573
571 0.4532
572 0.4543
573 0.4724
574 0.4751
575 0.4715
576 0.465
577 0.4673
578 0.4686
579 0.4627
580 0.4666
581 0.4712
582 0.4739
583 0.4791
584 0.48
585 0.4769
586 0.4688
587 0.4683
588 0.4751
589 0.4573
590 0.4383
591 0.4598
592 0.4711
593 0.4726
594 0.4723
595 0.4743
596 0.4726
597 0.4763
598 0.4762
599 0.4723
600 0.4738
601 0.4713
602 0.4662
603 0.4687
604 0.4777
605 0.48
606 0.4777
607 0.4764
608 0.475
609 0.4709
610 0.4688
611 0.4694
612 0.4707
613 0.4689
614 0.4635
615 0.4636
616 0.4604
617 0.4522
618 0.4597
619 0.467
620 0.4704
621 0.4751
622 0.4722
623 0.4698
624 0.4676
625 0.4638
626 0.4626
627 0.4721
628 0.4783
629 0.479
630 0.474
631 0.4722
632 0.4659
633 0.4721
634 0.4699
635 0.4719
636 0.4722
637 0.4713
638 0.4783
639 0.4784
640 0.4693
641 0.466
642 0.4645
643 0.4698
644 0.4687
645 0.4698
646 0.4661
647 0.4671
648 0.4708
649 0.4699
650 0.4564
651 0.4729
652 0.4758
653 0.4693
654 0.4658
655 0.4589
656 0.429
657 0.3945
658 0.4369
659 0.4585
660 0.4604
661 0.4647
662 0.4677
663 0.4665
664 0.4613
665 0.4629
666 0.4644
667 0.4621
668 0.4612
669 0.4645
670 0.4636
671 0.4622
672 0.4604
673 0.4593
674 0.4587
675 0.4582
676 0.4577
677 0.4573
678 0.457
679 0.4567
680 0.4564
681 0.4562
682 0.456
683 0.4559
684 0.4559
685 0.4559
686 0.456
687 0.4561
688 0.4562
689 0.4572
690 0.4599
691 0.4609
692 0.4588
693 0.4575
694 0.4585
695 0.4562
696 0.456
697 0.4577
698 0.4517
699 0.4574
700 0.4589
701 0.4529
702 0.4503
703 0.4524
704 0.4548
705 0.4597
706 0.457
707 0.4517
708 0.4524
709 0.4486
710 0.4459
711 0.4478
712 0.4419
713 0.4405
714 0.4416
715 0.441
716 0.4396
717 0.4417
718 0.4414
719 0.4358
720 0.4362
721 0.4373
722 0.4377
723 0.4374
724 0.4394
725 0.4385
726 0.435
727 0.4364
728 0.4358
729 0.4279
730 0.4263
731 0.4344
732 0.4336
733 0.4335
734 0.4337
735 0.4341
736 0.4297
737 0.4286
738 0.4283
739 0.4188
740 0.4196
741 0.4175
742 0.4146
743 0.421
744 0.4274
745 0.4232
746 0.4279
747 0.4265
748 0.4281
749 0.4259
750 0.4212
