# Top-of-atmosphere (TOA) lunar irradiance from Miller and Turner (2009) by 10 nm increments
# First column wavelength (nm), second column TOA irradiance# Phase angle = 179
# Units = mW/m^2-micrometer

300 0.6184
310 0.6146
320 0.9291
330 1.507
340 1.353
350 1.246
360 1.64
370 1.972
380 1.715
390 2.022
400 2.906
410 3.026
420 3.141
430 2.765
440 3.367
450 3.994
460 4.094
470 4.125
480 4.393
490 4.267
500 4.213
510 4.257
520 4.062
530 4.338
540 4.294
550 4.485
560 4.246
570 4.391
580 4.466
590 4.182
600 4.506
610 4.444
620 4.445
630 4.465
640 4.407
650 4.272
660 4.295
670 4.312
680 4.231
690 4.25
700 4.228
710 4.094
720 3.993
730 3.89
740 3.817
750 3.819
