# Top-of-atmosphere (TOA) lunar irradiance from Miller and Turner (2009)
# First column wavelength (nm), second column TOA irradiance# Lunar phase angle: 126
# Irradiance units: mW/m^2-micrometer

300 0.1572
301 0.1169
302 0.1472
303 0.1406
304 0.1989
305 0.1853
306 0.1891
307 0.1749
308 0.2035
309 0.2052
310 0.1567
311 0.2082
312 0.247
313 0.2145
314 0.2327
315 0.2138
316 0.2201
317 0.2012
318 0.2802
319 0.2155
320 0.2375
321 0.2934
322 0.2327
323 0.2439
324 0.2275
325 0.2726
326 0.3054
327 0.3481
328 0.338
329 0.3142
330 0.3862
331 0.3566
332 0.3531
333 0.3427
334 0.3283
335 0.3512
336 0.358
337 0.2834
338 0.3111
339 0.334
340 0.3478
341 0.3842
342 0.3369
343 0.3748
344 0.3768
345 0.2718
346 0.371
347 0.3443
348 0.3416
349 0.3562
350 0.3211
351 0.4244
352 0.3787
353 0.3393
354 0.4094
355 0.4357
356 0.4086
357 0.3653
358 0.3318
359 0.2477
360 0.4239
361 0.3998
362 0.3544
363 0.4052
364 0.3827
365 0.413
366 0.4741
367 0.5047
368 0.4868
369 0.4343
370 0.5111
371 0.4532
372 0.5243
373 0.4331
374 0.374
375 0.3816
376 0.4587
377 0.4502
378 0.5427
379 0.5827
380 0.4455
381 0.5217
382 0.4743
383 0.3402
384 0.2836
385 0.4113
386 0.4328
387 0.4384
388 0.4283
389 0.4119
390 0.5268
391 0.5391
392 0.6277
393 0.4747
394 0.2068
395 0.4788
396 0.6195
397 0.3293
398 0.3703
399 0.7058
400 0.7592
401 0.7628
402 0.83
403 0.8431
404 0.8258
405 0.8071
406 0.7846
407 0.7642
408 0.775
409 0.7859
410 0.7928
411 0.7345
412 0.7646
413 0.7947
414 0.8251
415 0.8284
416 0.8305
417 0.8413
418 0.8246
419 0.8243
420 0.8251
421 0.8455
422 0.8619
423 0.8325
424 0.8225
425 0.8427
426 0.8369
427 0.8335
428 0.8028
429 0.8025
430 0.7284
431 0.6083
432 0.7539
433 0.8333
434 0.8227
435 0.8057
436 0.8663
437 0.9152
438 0.8873
439 0.8532
440 0.8891
441 0.9282
442 0.9638
443 0.9936
444 0.9968
445 0.9981
446 0.9817
447 0.9758
448 1.033
449 1.047
450 1.058
451 1.106
452 1.111
453 1.06
454 1.033
455 1.081
456 1.089
457 1.119
458 1.12
459 1.093
460 1.087
461 1.105
462 1.123
463 1.134
464 1.122
465 1.098
466 1.099
467 1.091
468 1.086
469 1.106
470 1.098
471 1.083
472 1.11
473 1.145
474 1.131
475 1.157
476 1.157
477 1.142
478 1.173
479 1.173
480 1.173
481 1.168
482 1.177
483 1.167
484 1.153
485 1.14
486 1.038
487 0.9813
488 1.063
489 1.097
490 1.142
491 1.16
492 1.12
493 1.118
494 1.132
495 1.16
496 1.162
497 1.158
498 1.15
499 1.132
500 1.131
501 1.114
502 1.092
503 1.117
504 1.139
505 1.135
506 1.177
507 1.197
508 1.18
509 1.163
510 1.146
511 1.134
512 1.158
513 1.146
514 1.119
515 1.106
516 1.124
517 1.047
518 0.9854
519 1.024
520 1.096
521 1.118
522 1.139
523 1.117
524 1.138
525 1.173
526 1.161
527 1.064
528 1.091
529 1.162
530 1.174
531 1.192
532 1.195
533 1.183
534 1.167
535 1.172
536 1.208
537 1.181
538 1.182
539 1.191
540 1.165
541 1.143
542 1.169
543 1.184
544 1.195
545 1.206
546 1.21
547 1.211
548 1.198
549 1.205
550 1.22
551 1.215
552 1.221
553 1.22
554 1.217
555 1.231
556 1.226
557 1.202
558 1.188
559 1.173
560 1.159
561 1.188
562 1.2
563 1.187
564 1.194
565 1.198
566 1.189
567 1.19
568 1.212
569 1.204
570 1.202
571 1.191
572 1.194
573 1.241
574 1.248
575 1.238
576 1.221
577 1.227
578 1.231
579 1.215
580 1.225
581 1.237
582 1.244
583 1.258
584 1.26
585 1.252
586 1.231
587 1.229
588 1.247
589 1.2
590 1.15
591 1.207
592 1.237
593 1.24
594 1.24
595 1.245
596 1.24
597 1.25
598 1.25
599 1.239
600 1.243
601 1.237
602 1.223
603 1.23
604 1.253
605 1.259
606 1.253
607 1.25
608 1.246
609 1.235
610 1.229
611 1.231
612 1.234
613 1.23
614 1.215
615 1.215
616 1.207
617 1.185
618 1.205
619 1.224
620 1.233
621 1.245
622 1.238
623 1.231
624 1.225
625 1.215
626 1.212
627 1.237
628 1.253
629 1.255
630 1.242
631 1.237
632 1.22
633 1.237
634 1.231
635 1.236
636 1.237
637 1.234
638 1.253
639 1.253
640 1.229
641 1.22
642 1.216
643 1.23
644 1.227
645 1.23
646 1.22
647 1.223
648 1.233
649 1.23
650 1.195
651 1.238
652 1.245
653 1.228
654 1.219
655 1.201
656 1.123
657 1.032
658 1.143
659 1.199
660 1.204
661 1.216
662 1.224
663 1.22
664 1.207
665 1.211
666 1.215
667 1.209
668 1.206
669 1.215
670 1.212
671 1.209
672 1.204
673 1.201
674 1.199
675 1.198
676 1.197
677 1.196
678 1.195
679 1.194
680 1.193
681 1.192
682 1.192
683 1.192
684 1.191
685 1.191
686 1.191
687 1.192
688 1.192
689 1.195
690 1.202
691 1.204
692 1.199
693 1.195
694 1.198
695 1.192
696 1.191
697 1.195
698 1.18
699 1.195
700 1.198
701 1.183
702 1.176
703 1.181
704 1.187
705 1.2
706 1.193
707 1.179
708 1.181
709 1.171
710 1.164
711 1.169
712 1.153
713 1.15
714 1.153
715 1.151
716 1.147
717 1.152
718 1.152
719 1.137
720 1.138
721 1.141
722 1.142
723 1.141
724 1.146
725 1.144
726 1.135
727 1.138
728 1.136
729 1.116
730 1.112
731 1.133
732 1.131
733 1.13
734 1.131
735 1.132
736 1.12
737 1.117
738 1.116
739 1.092
740 1.094
741 1.088
742 1.08
743 1.097
744 1.114
745 1.103
746 1.115
747 1.111
748 1.116
749 1.11
750 1.097
