# Top-of-atmosphere (TOA) lunar irradiance from Miller and Turner (2009) by 10 nm increments
# First column wavelength (nm), second column TOA irradiance# Phase angle = 135
# Units = mW/m^2-micrometer

300 0.195
310 0.1943
320 0.2945
330 0.4789
340 0.4312
350 0.398
360 0.5253
370 0.6333
380 0.552
390 0.6524
400 0.9402
410 0.9816
420 1.021
430 0.9016
440 1.1
450 1.309
460 1.345
470 1.358
480 1.45
490 1.413
500 1.398
510 1.416
520 1.355
530 1.451
540 1.439
550 1.507
560 1.431
570 1.484
580 1.513
590 1.42
600 1.534
610 1.517
620 1.521
630 1.532
640 1.515
650 1.473
660 1.485
670 1.494
680 1.47
690 1.48
700 1.476
710 1.433
720 1.401
730 1.369
740 1.346
750 1.351
