# Top-of-atmosphere (TOA) lunar irradiance from Miller and Turner (2009)
# First column wavelength (nm), second column TOA irradiance# Lunar phase angle: 97
# Irradiance units: mW/m^2-micrometer

300 0.07196
301 0.05351
302 0.06738
303 0.06438
304 0.09106
305 0.08481
306 0.08659
307 0.0801
308 0.09315
309 0.09396
310 0.07174
311 0.09531
312 0.1131
313 0.09822
314 0.1066
315 0.09791
316 0.1008
317 0.09215
318 0.1283
319 0.0987
320 0.1088
321 0.1344
322 0.1066
323 0.1117
324 0.1042
325 0.1249
326 0.1399
327 0.1595
328 0.1548
329 0.144
330 0.177
331 0.1634
332 0.1618
333 0.157
334 0.1504
335 0.1609
336 0.1641
337 0.1299
338 0.1426
339 0.1531
340 0.1594
341 0.1761
342 0.1544
343 0.1718
344 0.1727
345 0.1246
346 0.1701
347 0.1579
348 0.1566
349 0.1633
350 0.1472
351 0.1946
352 0.1737
353 0.1556
354 0.1878
355 0.1998
356 0.1874
357 0.1675
358 0.1522
359 0.1136
360 0.1944
361 0.1834
362 0.1626
363 0.1859
364 0.1755
365 0.1895
366 0.2175
367 0.2315
368 0.2233
369 0.1993
370 0.2345
371 0.2079
372 0.2406
373 0.1988
374 0.1716
375 0.1751
376 0.2105
377 0.2066
378 0.2491
379 0.2674
380 0.2045
381 0.2395
382 0.2177
383 0.1562
384 0.1302
385 0.1888
386 0.1987
387 0.2013
388 0.1966
389 0.1891
390 0.2419
391 0.2475
392 0.2882
393 0.218
394 0.09496
395 0.2199
396 0.2845
397 0.1512
398 0.1701
399 0.3242
400 0.3487
401 0.3504
402 0.3812
403 0.3873
404 0.3793
405 0.3708
406 0.3604
407 0.3511
408 0.3561
409 0.3611
410 0.3643
411 0.3375
412 0.3513
413 0.3652
414 0.3792
415 0.3807
416 0.3817
417 0.3866
418 0.379
419 0.3789
420 0.3793
421 0.3886
422 0.3962
423 0.3827
424 0.3781
425 0.3874
426 0.3848
427 0.3832
428 0.3691
429 0.369
430 0.3349
431 0.2797
432 0.3467
433 0.3832
434 0.3783
435 0.3705
436 0.3984
437 0.4209
438 0.4081
439 0.3924
440 0.409
441 0.4269
442 0.4433
443 0.4571
444 0.4586
445 0.4591
446 0.4516
447 0.4489
448 0.4755
449 0.4816
450 0.4867
451 0.5088
452 0.5114
453 0.4876
454 0.4754
455 0.4975
456 0.5012
457 0.5151
458 0.5156
459 0.5032
460 0.5004
461 0.5085
462 0.5169
463 0.5221
464 0.5166
465 0.5055
466 0.5059
467 0.5022
468 0.4998
469 0.5091
470 0.5057
471 0.4987
472 0.5113
473 0.5274
474 0.521
475 0.5327
476 0.5328
477 0.5259
478 0.54
479 0.5402
480 0.5402
481 0.5379
482 0.5424
483 0.5378
484 0.5312
485 0.5253
486 0.4783
487 0.4521
488 0.4897
489 0.5053
490 0.5264
491 0.5344
492 0.516
493 0.5152
494 0.5218
495 0.5348
496 0.5354
497 0.5338
498 0.53
499 0.5217
500 0.5213
501 0.5134
502 0.5036
503 0.5147
504 0.5248
505 0.5231
506 0.5428
507 0.5517
508 0.5441
509 0.5364
510 0.5283
511 0.523
512 0.5337
513 0.5284
514 0.5161
515 0.51
516 0.5182
517 0.4829
518 0.4545
519 0.4721
520 0.5057
521 0.5155
522 0.5255
523 0.5154
524 0.5249
525 0.5413
526 0.5358
527 0.491
528 0.5031
529 0.5359
530 0.5417
531 0.5499
532 0.5515
533 0.5458
534 0.5387
535 0.5408
536 0.5573
537 0.5452
538 0.5457
539 0.5497
540 0.5378
541 0.5276
542 0.5396
543 0.5464
544 0.5515
545 0.5568
546 0.5586
547 0.5593
548 0.5532
549 0.5564
550 0.5635
551 0.5612
552 0.5637
553 0.5633
554 0.5621
555 0.5683
556 0.566
557 0.5549
558 0.5486
559 0.542
560 0.5352
561 0.5487
562 0.5542
563 0.5483
564 0.5515
565 0.5534
566 0.5491
567 0.5499
568 0.5601
569 0.5562
570 0.5552
571 0.5501
572 0.5515
573 0.5734
574 0.5767
575 0.5723
576 0.5644
577 0.5672
578 0.5688
579 0.5616
580 0.5664
581 0.572
582 0.5752
583 0.5815
584 0.5826
585 0.5788
586 0.5689
587 0.5683
588 0.5766
589 0.555
590 0.5319
591 0.5581
592 0.5718
593 0.5736
594 0.5732
595 0.5756
596 0.5736
597 0.578
598 0.5779
599 0.5731
600 0.5749
601 0.5719
602 0.5657
603 0.5687
604 0.5797
605 0.5824
606 0.5797
607 0.5781
608 0.5763
609 0.5714
610 0.5688
611 0.5696
612 0.5711
613 0.5689
614 0.5624
615 0.5625
616 0.5585
617 0.5486
618 0.5577
619 0.5666
620 0.5706
621 0.5763
622 0.5729
623 0.5699
624 0.5672
625 0.5626
626 0.5611
627 0.5727
628 0.5803
629 0.5811
630 0.575
631 0.5728
632 0.5651
633 0.5726
634 0.57
635 0.5724
636 0.5727
637 0.5717
638 0.5801
639 0.5803
640 0.5692
641 0.5652
642 0.5634
643 0.5699
644 0.5685
645 0.5697
646 0.5653
647 0.5665
648 0.571
649 0.5699
650 0.5535
651 0.5735
652 0.577
653 0.5691
654 0.5649
655 0.5565
656 0.5202
657 0.4784
658 0.5299
659 0.5559
660 0.5583
661 0.5635
662 0.5672
663 0.5657
664 0.5593
665 0.5612
666 0.5631
667 0.5603
668 0.5592
669 0.5632
670 0.5622
671 0.5604
672 0.5582
673 0.5568
674 0.5562
675 0.5555
676 0.555
677 0.5545
678 0.554
679 0.5536
680 0.5533
681 0.5531
682 0.5529
683 0.5527
684 0.5527
685 0.5527
686 0.5527
687 0.5529
688 0.553
689 0.5542
690 0.5575
691 0.5587
692 0.5562
693 0.5545
694 0.5557
695 0.5529
696 0.5527
697 0.5547
698 0.5475
699 0.5544
700 0.5562
701 0.5489
702 0.5457
703 0.5483
704 0.5512
705 0.5571
706 0.5538
707 0.5474
708 0.5483
709 0.5437
710 0.5403
711 0.5427
712 0.5356
713 0.5338
714 0.5352
715 0.5344
716 0.5326
717 0.5352
718 0.5348
719 0.5281
720 0.5286
721 0.5298
722 0.5303
723 0.5299
724 0.5324
725 0.5313
726 0.5271
727 0.5288
728 0.528
729 0.5185
730 0.5165
731 0.5263
732 0.5253
733 0.5252
734 0.5255
735 0.5259
736 0.5206
737 0.5193
738 0.5188
739 0.5074
740 0.5084
741 0.5058
742 0.5022
743 0.51
744 0.5178
745 0.5127
746 0.5184
747 0.5166
748 0.5186
749 0.5158
750 0.5102
