# Top-of-atmosphere (TOA) lunar irradiance from Miller and Turner (2009) by 10 nm increments
# First column wavelength (nm), second column TOA irradiance# Phase angle = 80
# Units = mW/m^2-micrometer

300 0.03893
310 0.03884
320 0.05892
330 0.09591
340 0.08645
350 0.07989
360 0.1055
370 0.1274
380 0.1111
390 0.1315
400 0.1897
410 0.1983
420 0.2066
430 0.1825
440 0.223
450 0.2655
460 0.2732
470 0.2762
480 0.2952
490 0.2879
500 0.2852
510 0.2893
520 0.277
530 0.2969
540 0.2949
550 0.3092
560 0.2938
570 0.305
580 0.3113
590 0.2925
600 0.3164
610 0.3132
620 0.3143
630 0.3169
640 0.3139
650 0.3054
660 0.3082
670 0.3105
680 0.3058
690 0.3083
700 0.3078
710 0.2991
720 0.2928
730 0.2863
740 0.2819
750 0.2831
