# Top-of-atmosphere (TOA) lunar irradiance from Miller and Turner (2009) by 10 nm increments
# First column wavelength (nm), second column TOA irradiance# Phase angle = 152
# Units = mW/m^2-micrometer

300 0.3024
310 0.3011
320 0.4559
330 0.7406
340 0.6662
350 0.6144
360 0.8102
370 0.9759
380 0.8498
390 1.004
400 1.445
410 1.507
420 1.567
430 1.382
440 1.685
450 2.002
460 2.056
470 2.075
480 2.213
490 2.154
500 2.13
510 2.156
520 2.06
530 2.204
540 2.185
550 2.286
560 2.168
570 2.246
580 2.288
590 2.146
600 2.316
610 2.288
620 2.292
630 2.307
640 2.28
650 2.214
660 2.23
670 2.243
680 2.204
690 2.218
700 2.21
710 2.143
720 2.094
730 2.043
740 2.008
750 2.013
