# Top-of-atmosphere (TOA) lunar irradiance from Miller and Turner (2009)
# First column wavelength (nm), second column TOA irradiance# Lunar phase angle: 157
# Irradiance units: mW/m^2-micrometer

300 0.3446
301 0.2562
302 0.3225
303 0.3082
304 0.4358
305 0.4058
306 0.4142
307 0.3831
308 0.4455
309 0.4493
310 0.343
311 0.4556
312 0.5404
313 0.4693
314 0.5091
315 0.4677
316 0.4815
317 0.44
318 0.6127
319 0.4711
320 0.5192
321 0.6413
322 0.5086
323 0.533
324 0.497
325 0.5955
326 0.667
327 0.7603
328 0.738
329 0.6861
330 0.8431
331 0.7784
332 0.7707
333 0.7477
334 0.7163
335 0.7661
336 0.7808
337 0.618
338 0.6784
339 0.7282
340 0.7583
341 0.8374
342 0.7342
343 0.8168
344 0.821
345 0.5922
346 0.8081
347 0.75
348 0.744
349 0.7756
350 0.6991
351 0.9238
352 0.8243
353 0.7383
354 0.8909
355 0.9479
356 0.8887
357 0.7944
358 0.7215
359 0.5387
360 0.9216
361 0.8691
362 0.7703
363 0.8806
364 0.8315
365 0.8973
366 1.03
367 1.096
368 1.057
369 0.9431
370 1.11
371 0.9838
372 1.138
373 0.94
374 0.8116
375 0.828
376 0.9951
377 0.9766
378 1.177
379 1.264
380 0.9661
381 1.131
382 1.028
383 0.7374
384 0.6145
385 0.8912
386 0.9377
387 0.9496
388 0.9276
389 0.8921
390 1.141
391 1.167
392 1.359
393 1.027
394 0.4475
395 1.036
396 1.34
397 0.7124
398 0.8009
399 1.526
400 1.642
401 1.649
402 1.794
403 1.822
404 1.785
405 1.744
406 1.695
407 1.651
408 1.674
409 1.697
410 1.712
411 1.586
412 1.651
413 1.715
414 1.781
415 1.788
416 1.792
417 1.815
418 1.779
419 1.778
420 1.779
421 1.823
422 1.858
423 1.795
424 1.773
425 1.816
426 1.803
427 1.796
428 1.729
429 1.728
430 1.569
431 1.31
432 1.623
433 1.794
434 1.771
435 1.734
436 1.864
437 1.969
438 1.909
439 1.835
440 1.912
441 1.996
442 2.072
443 2.136
444 2.143
445 2.145
446 2.11
447 2.097
448 2.22
449 2.248
450 2.272
451 2.374
452 2.386
453 2.275
454 2.218
455 2.32
456 2.337
457 2.402
458 2.404
459 2.345
460 2.332
461 2.369
462 2.408
463 2.432
464 2.406
465 2.354
466 2.355
467 2.337
468 2.326
469 2.369
470 2.352
471 2.319
472 2.378
473 2.452
474 2.422
475 2.476
476 2.476
477 2.443
478 2.509
479 2.509
480 2.509
481 2.498
482 2.518
483 2.496
484 2.465
485 2.437
486 2.219
487 2.097
488 2.271
489 2.343
490 2.44
491 2.477
492 2.391
493 2.387
494 2.417
495 2.477
496 2.479
497 2.472
498 2.454
499 2.415
500 2.413
501 2.376
502 2.33
503 2.381
504 2.427
505 2.419
506 2.51
507 2.55
508 2.515
509 2.479
510 2.441
511 2.416
512 2.465
513 2.44
514 2.383
515 2.354
516 2.392
517 2.228
518 2.097
519 2.178
520 2.333
521 2.377
522 2.423
523 2.376
524 2.419
525 2.495
526 2.469
527 2.262
528 2.317
529 2.468
530 2.494
531 2.532
532 2.539
533 2.512
534 2.479
535 2.488
536 2.564
537 2.507
538 2.509
539 2.527
540 2.472
541 2.425
542 2.479
543 2.51
544 2.533
545 2.557
546 2.565
547 2.568
548 2.539
549 2.554
550 2.586
551 2.575
552 2.586
553 2.583
554 2.578
555 2.606
556 2.595
557 2.543
558 2.514
559 2.483
560 2.452
561 2.513
562 2.538
563 2.511
564 2.525
565 2.533
566 2.513
567 2.516
568 2.562
569 2.544
570 2.539
571 2.515
572 2.521
573 2.621
574 2.636
575 2.615
576 2.578
577 2.591
578 2.598
579 2.564
580 2.586
581 2.611
582 2.625
583 2.653
584 2.658
585 2.64
586 2.595
587 2.591
588 2.629
589 2.53
590 2.424
591 2.543
592 2.605
593 2.613
594 2.611
595 2.621
596 2.611
597 2.631
598 2.63
599 2.608
600 2.616
601 2.602
602 2.573
603 2.586
604 2.636
605 2.648
606 2.635
607 2.627
608 2.618
609 2.596
610 2.584
611 2.587
612 2.593
613 2.583
614 2.552
615 2.552
616 2.534
617 2.489
618 2.53
619 2.569
620 2.587
621 2.613
622 2.597
623 2.583
624 2.57
625 2.549
626 2.542
627 2.594
628 2.627
629 2.631
630 2.603
631 2.592
632 2.557
633 2.591
634 2.578
635 2.589
636 2.59
637 2.585
638 2.622
639 2.623
640 2.572
641 2.554
642 2.545
643 2.574
644 2.567
645 2.572
646 2.552
647 2.557
648 2.577
649 2.571
650 2.497
651 2.587
652 2.602
653 2.566
654 2.547
655 2.508
656 2.344
657 2.156
658 2.387
659 2.504
660 2.514
661 2.537
662 2.553
663 2.546
664 2.517
665 2.525
666 2.533
667 2.52
668 2.515
669 2.532
670 2.527
671 2.519
672 2.508
673 2.502
674 2.499
675 2.495
676 2.492
677 2.49
678 2.487
679 2.485
680 2.483
681 2.482
682 2.48
683 2.479
684 2.479
685 2.478
686 2.478
687 2.478
688 2.479
689 2.484
690 2.498
691 2.503
692 2.491
693 2.483
694 2.488
695 2.475
696 2.474
697 2.482
698 2.45
699 2.48
700 2.488
701 2.455
702 2.44
703 2.451
704 2.464
705 2.49
706 2.475
707 2.445
708 2.449
709 2.428
710 2.413
711 2.423
712 2.39
713 2.382
714 2.388
715 2.384
716 2.376
717 2.387
718 2.385
719 2.355
720 2.356
721 2.361
722 2.363
723 2.361
724 2.372
725 2.366
726 2.347
727 2.354
728 2.35
729 2.308
730 2.298
731 2.341
732 2.337
733 2.336
734 2.337
735 2.338
736 2.314
737 2.308
738 2.306
739 2.254
740 2.258
741 2.246
742 2.23
743 2.264
744 2.298
745 2.276
746 2.3
747 2.292
748 2.301
749 2.288
750 2.263
