# Top-of-atmosphere (TOA) lunar irradiance from Miller and Turner (2009) by 10 nm increments
# First column wavelength (nm), second column TOA irradiance# Phase angle = 91
# Units = mW/m^2-micrometer

300 0.05908
310 0.05891
320 0.08934
330 0.1454
340 0.131
350 0.121
360 0.1597
370 0.1927
380 0.1681
390 0.1988
400 0.2867
410 0.2995
420 0.3119
430 0.2754
440 0.3364
450 0.4003
460 0.4117
470 0.4161
480 0.4445
490 0.4332
500 0.4291
510 0.4349
520 0.4163
530 0.446
540 0.4429
550 0.4641
560 0.4408
570 0.4573
580 0.4666
590 0.4383
600 0.4738
610 0.4688
620 0.4704
630 0.474
640 0.4693
650 0.4564
660 0.4604
670 0.4636
680 0.4564
690 0.4599
700 0.4589
710 0.4459
720 0.4362
730 0.4263
740 0.4196
750 0.4212
