# Top-of-atmosphere (TOA) lunar irradiance from Miller and Turner (2009)
# First column wavelength (nm), second column TOA irradiance# Lunar phase angle: 136
# Irradiance units: mW/m^2-micrometer

300 0.1998
301 0.1486
302 0.187
303 0.1787
304 0.2528
305 0.2354
306 0.2403
307 0.2223
308 0.2585
309 0.2607
310 0.1991
311 0.2645
312 0.3138
313 0.2725
314 0.2956
315 0.2716
316 0.2797
317 0.2556
318 0.3559
319 0.2738
320 0.3017
321 0.3727
322 0.2957
323 0.3098
324 0.289
325 0.3463
326 0.3878
327 0.4422
328 0.4293
329 0.3991
330 0.4905
331 0.4529
332 0.4485
333 0.4352
334 0.4169
335 0.446
336 0.4546
337 0.3598
338 0.3951
339 0.4241
340 0.4417
341 0.4878
342 0.4277
343 0.4759
344 0.4784
345 0.3451
346 0.471
347 0.4372
348 0.4337
349 0.4522
350 0.4077
351 0.5388
352 0.4808
353 0.4307
354 0.5198
355 0.5531
356 0.5186
357 0.4636
358 0.4211
359 0.3144
360 0.538
361 0.5075
362 0.4498
363 0.5143
364 0.4857
365 0.5241
366 0.6016
367 0.6405
368 0.6177
369 0.5512
370 0.6486
371 0.5751
372 0.6653
373 0.5496
374 0.4746
375 0.4842
376 0.582
377 0.5713
378 0.6886
379 0.7393
380 0.5653
381 0.662
382 0.6018
383 0.4317
384 0.3597
385 0.5218
386 0.5491
387 0.5561
388 0.5433
389 0.5225
390 0.6682
391 0.6838
392 0.7962
393 0.6021
394 0.2623
395 0.6073
396 0.7857
397 0.4177
398 0.4696
399 0.8951
400 0.9629
401 0.9674
402 1.053
403 1.069
404 1.047
405 1.023
406 0.9949
407 0.9691
408 0.9828
409 0.9966
410 1.005
411 0.9313
412 0.9694
413 1.008
414 1.046
415 1.05
416 1.053
417 1.067
418 1.045
419 1.045
420 1.046
421 1.072
422 1.093
423 1.055
424 1.043
425 1.068
426 1.061
427 1.057
428 1.018
429 1.017
430 0.9232
431 0.771
432 0.9555
433 1.056
434 1.043
435 1.021
436 1.098
437 1.16
438 1.124
439 1.081
440 1.127
441 1.176
442 1.221
443 1.259
444 1.263
445 1.265
446 1.244
447 1.236
448 1.309
449 1.326
450 1.34
451 1.401
452 1.408
453 1.343
454 1.309
455 1.37
456 1.38
457 1.418
458 1.419
459 1.385
460 1.377
461 1.399
462 1.422
463 1.437
464 1.421
465 1.391
466 1.392
467 1.382
468 1.375
469 1.4
470 1.391
471 1.372
472 1.406
473 1.451
474 1.433
475 1.465
476 1.465
477 1.446
478 1.485
479 1.485
480 1.485
481 1.479
482 1.491
483 1.478
484 1.46
485 1.444
486 1.314
487 1.242
488 1.346
489 1.388
490 1.446
491 1.468
492 1.418
493 1.415
494 1.433
495 1.469
496 1.47
497 1.466
498 1.456
499 1.433
500 1.431
501 1.41
502 1.383
503 1.413
504 1.441
505 1.436
506 1.49
507 1.514
508 1.493
509 1.472
510 1.45
511 1.435
512 1.465
513 1.45
514 1.416
515 1.399
516 1.422
517 1.325
518 1.247
519 1.295
520 1.387
521 1.414
522 1.441
523 1.413
524 1.439
525 1.484
526 1.469
527 1.346
528 1.379
529 1.469
530 1.485
531 1.507
532 1.512
533 1.496
534 1.476
535 1.482
536 1.527
537 1.494
538 1.495
539 1.506
540 1.474
541 1.445
542 1.478
543 1.497
544 1.511
545 1.525
546 1.53
547 1.532
548 1.515
549 1.524
550 1.543
551 1.537
552 1.543
553 1.542
554 1.539
555 1.556
556 1.549
557 1.519
558 1.502
559 1.483
560 1.465
561 1.502
562 1.517
563 1.5
564 1.509
565 1.514
566 1.502
567 1.504
568 1.532
569 1.521
570 1.519
571 1.505
572 1.508
573 1.568
574 1.577
575 1.565
576 1.543
577 1.551
578 1.555
579 1.535
580 1.548
581 1.564
582 1.572
583 1.589
584 1.592
585 1.582
586 1.555
587 1.553
588 1.576
589 1.517
590 1.453
591 1.525
592 1.562
593 1.567
594 1.566
595 1.572
596 1.567
597 1.579
598 1.578
599 1.565
600 1.57
601 1.562
602 1.545
603 1.553
604 1.583
605 1.59
606 1.582
607 1.578
608 1.573
609 1.56
610 1.552
611 1.554
612 1.558
613 1.553
614 1.534
615 1.535
616 1.524
617 1.497
618 1.522
619 1.546
620 1.557
621 1.572
622 1.563
623 1.554
624 1.547
625 1.534
626 1.53
627 1.562
628 1.582
629 1.584
630 1.567
631 1.561
632 1.54
633 1.561
634 1.554
635 1.56
636 1.561
637 1.558
638 1.581
639 1.581
640 1.551
641 1.54
642 1.535
643 1.552
644 1.549
645 1.552
646 1.54
647 1.543
648 1.555
649 1.552
650 1.507
651 1.562
652 1.571
653 1.55
654 1.538
655 1.515
656 1.416
657 1.302
658 1.442
659 1.513
660 1.519
661 1.534
662 1.543
663 1.539
664 1.522
665 1.527
666 1.532
667 1.524
668 1.521
669 1.532
670 1.529
671 1.524
672 1.518
673 1.514
674 1.513
675 1.511
676 1.509
677 1.508
678 1.506
679 1.505
680 1.504
681 1.504
682 1.503
683 1.502
684 1.502
685 1.502
686 1.502
687 1.502
688 1.503
689 1.506
690 1.515
691 1.518
692 1.511
693 1.506
694 1.51
695 1.502
696 1.501
697 1.507
698 1.487
699 1.506
700 1.511
701 1.491
702 1.482
703 1.489
704 1.497
705 1.513
706 1.504
707 1.486
708 1.488
709 1.476
710 1.467
711 1.473
712 1.453
713 1.449
714 1.452
715 1.45
716 1.445
717 1.452
718 1.451
719 1.433
720 1.434
721 1.437
722 1.439
723 1.437
724 1.444
725 1.441
726 1.429
727 1.434
728 1.432
729 1.406
730 1.4
731 1.427
732 1.424
733 1.424
734 1.424
735 1.425
736 1.411
737 1.407
738 1.406
739 1.375
740 1.378
741 1.37
742 1.361
743 1.382
744 1.403
745 1.389
746 1.404
747 1.399
748 1.405
749 1.397
750 1.382
