# Top-of-atmosphere (TOA) lunar irradiance from Miller and Turner (2009) by 10 nm increments
# First column wavelength (nm), second column TOA irradiance# Phase angle = 174
# Units = mW/m^2-micrometer

300 0.5429
310 0.5397
320 0.8161
330 1.324
340 1.189
350 1.095
360 1.442
370 1.735
380 1.509
390 1.779
400 2.558
410 2.665
420 2.767
430 2.436
440 2.967
450 3.52
460 3.61
470 3.638
480 3.875
490 3.765
500 3.718
510 3.758
520 3.587
530 3.832
540 3.794
550 3.964
560 3.754
570 3.883
580 3.95
590 3.7
600 3.988
610 3.934
620 3.936
630 3.955
640 3.904
650 3.786
660 3.808
670 3.823
680 3.753
690 3.77
700 3.751
710 3.634
720 3.545
730 3.455
740 3.39
750 3.393
