# Top-of-atmosphere (TOA) lunar irradiance from Miller and Turner (2009) by 10 nm increments
# First column wavelength (nm), second column TOA irradiance# Phase angle = 149
# Units = mW/m^2-micrometer

300 0.2795
310 0.2783
320 0.4215
330 0.6848
340 0.6162
350 0.5684
360 0.7496
370 0.903
380 0.7865
390 0.9291
400 1.338
410 1.396
420 1.452
430 1.28
440 1.561
450 1.856
460 1.906
470 1.924
480 2.052
490 1.997
500 1.976
510 2
520 1.912
530 2.045
540 2.028
550 2.123
560 2.013
570 2.086
580 2.126
590 1.994
600 2.152
610 2.127
620 2.131
630 2.145
640 2.121
650 2.059
660 2.075
670 2.087
680 2.051
690 2.064
700 2.057
710 1.996
720 1.95
730 1.903
740 1.871
750 1.875
