# Top-of-atmosphere (TOA) lunar irradiance from Miller and Turner (2009)
# First column wavelength (nm), second column TOA irradiance# Lunar phase angle: 90
# Irradiance units: mW/m^2-micrometer

300 0.05717
301 0.04251
302 0.05353
303 0.05116
304 0.07236
305 0.06739
306 0.0688
307 0.06365
308 0.07402
309 0.07466
310 0.05701
311 0.07574
312 0.08986
313 0.07805
314 0.08468
315 0.07781
316 0.08012
317 0.07324
318 0.102
319 0.07844
320 0.08646
321 0.1068
322 0.08473
323 0.08881
324 0.08283
325 0.09927
326 0.1112
327 0.1268
328 0.1231
329 0.1144
330 0.1407
331 0.1299
332 0.1286
333 0.1248
334 0.1196
335 0.1279
336 0.1304
337 0.1032
338 0.1134
339 0.1217
340 0.1267
341 0.14
342 0.1228
343 0.1366
344 0.1373
345 0.09907
346 0.1352
347 0.1255
348 0.1245
349 0.1299
350 0.1171
351 0.1547
352 0.1381
353 0.1237
354 0.1493
355 0.1589
356 0.149
357 0.1332
358 0.121
359 0.09035
360 0.1546
361 0.1458
362 0.1293
363 0.1478
364 0.1396
365 0.1507
366 0.173
367 0.1841
368 0.1776
369 0.1585
370 0.1865
371 0.1654
372 0.1913
373 0.1581
374 0.1365
375 0.1393
376 0.1674
377 0.1644
378 0.1981
379 0.2127
380 0.1627
381 0.1905
382 0.1732
383 0.1242
384 0.1035
385 0.1502
386 0.1581
387 0.1601
388 0.1564
389 0.1505
390 0.1924
391 0.1969
392 0.2293
393 0.1734
394 0.07555
395 0.1749
396 0.2263
397 0.1203
398 0.1353
399 0.2579
400 0.2775
401 0.2788
402 0.3033
403 0.3081
404 0.3018
405 0.295
406 0.2868
407 0.2794
408 0.2834
409 0.2874
410 0.2899
411 0.2686
412 0.2796
413 0.2906
414 0.3017
415 0.303
416 0.3037
417 0.3077
418 0.3016
419 0.3015
420 0.3018
421 0.3093
422 0.3153
423 0.3046
424 0.301
425 0.3084
426 0.3063
427 0.305
428 0.2938
429 0.2937
430 0.2666
431 0.2226
432 0.2759
433 0.305
434 0.3011
435 0.295
436 0.3171
437 0.3351
438 0.3249
439 0.3124
440 0.3256
441 0.3399
442 0.353
443 0.3639
444 0.3651
445 0.3655
446 0.3596
447 0.3574
448 0.3786
449 0.3834
450 0.3875
451 0.4051
452 0.4072
453 0.3883
454 0.3786
455 0.3962
456 0.3991
457 0.4102
458 0.4106
459 0.4007
460 0.3985
461 0.405
462 0.4116
463 0.4158
464 0.4114
465 0.4026
466 0.4029
467 0.4
468 0.3981
469 0.4055
470 0.4027
471 0.3972
472 0.4073
473 0.4201
474 0.4149
475 0.4243
476 0.4244
477 0.4189
478 0.4302
479 0.4303
480 0.4303
481 0.4285
482 0.432
483 0.4284
484 0.4232
485 0.4185
486 0.381
487 0.3601
488 0.3901
489 0.4026
490 0.4194
491 0.4257
492 0.4111
493 0.4105
494 0.4157
495 0.4261
496 0.4266
497 0.4253
498 0.4223
499 0.4157
500 0.4154
501 0.4091
502 0.4012
503 0.4101
504 0.4182
505 0.4168
506 0.4326
507 0.4396
508 0.4336
509 0.4275
510 0.421
511 0.4167
512 0.4253
513 0.4211
514 0.4113
515 0.4064
516 0.413
517 0.3848
518 0.3622
519 0.3762
520 0.4031
521 0.4109
522 0.4188
523 0.4108
524 0.4184
525 0.4315
526 0.4271
527 0.3913
528 0.401
529 0.4272
530 0.4318
531 0.4384
532 0.4396
533 0.4351
534 0.4294
535 0.4311
536 0.4443
537 0.4346
538 0.435
539 0.4383
540 0.4288
541 0.4206
542 0.4302
543 0.4356
544 0.4397
545 0.4439
546 0.4454
547 0.4459
548 0.4411
549 0.4436
550 0.4493
551 0.4474
552 0.4495
553 0.4491
554 0.4482
555 0.4532
556 0.4514
557 0.4425
558 0.4375
559 0.4322
560 0.4268
561 0.4376
562 0.442
563 0.4373
564 0.4399
565 0.4414
566 0.4379
567 0.4386
568 0.4467
569 0.4436
570 0.4428
571 0.4388
572 0.4399
573 0.4574
574 0.46
575 0.4565
576 0.4502
577 0.4524
578 0.4537
579 0.448
580 0.4518
581 0.4563
582 0.4588
583 0.4639
584 0.4647
585 0.4617
586 0.4539
587 0.4534
588 0.46
589 0.4428
590 0.4244
591 0.4452
592 0.4562
593 0.4576
594 0.4573
595 0.4592
596 0.4576
597 0.4612
598 0.4611
599 0.4573
600 0.4588
601 0.4564
602 0.4514
603 0.4538
604 0.4626
605 0.4647
606 0.4626
607 0.4613
608 0.4599
609 0.456
610 0.4539
611 0.4546
612 0.4557
613 0.454
614 0.4488
615 0.4489
616 0.4458
617 0.4379
618 0.4451
619 0.4522
620 0.4554
621 0.46
622 0.4573
623 0.4549
624 0.4528
625 0.4491
626 0.4479
627 0.4572
628 0.4632
629 0.4638
630 0.459
631 0.4572
632 0.4511
633 0.4571
634 0.455
635 0.457
636 0.4572
637 0.4564
638 0.4631
639 0.4633
640 0.4544
641 0.4513
642 0.4498
643 0.455
644 0.4539
645 0.4549
646 0.4514
647 0.4523
648 0.4559
649 0.455
650 0.4419
651 0.458
652 0.4607
653 0.4544
654 0.4511
655 0.4444
656 0.4154
657 0.382
658 0.4231
659 0.444
660 0.4458
661 0.45
662 0.4529
663 0.4517
664 0.4467
665 0.4482
666 0.4497
667 0.4475
668 0.4466
669 0.4498
670 0.449
671 0.4476
672 0.4458
673 0.4448
674 0.4442
675 0.4437
676 0.4433
677 0.4429
678 0.4425
679 0.4422
680 0.442
681 0.4418
682 0.4416
683 0.4416
684 0.4415
685 0.4415
686 0.4416
687 0.4417
688 0.4418
689 0.4428
690 0.4454
691 0.4464
692 0.4443
693 0.443
694 0.444
695 0.4418
696 0.4416
697 0.4432
698 0.4374
699 0.443
700 0.4445
701 0.4386
702 0.4361
703 0.4381
704 0.4404
705 0.4452
706 0.4426
707 0.4375
708 0.4382
709 0.4345
710 0.4318
711 0.4337
712 0.428
713 0.4266
714 0.4277
715 0.4271
716 0.4257
717 0.4278
718 0.4275
719 0.4221
720 0.4225
721 0.4235
722 0.4239
723 0.4236
724 0.4256
725 0.4247
726 0.4213
727 0.4227
728 0.4221
729 0.4145
730 0.4129
731 0.4207
732 0.4199
733 0.4198
734 0.4201
735 0.4204
736 0.4162
737 0.4151
738 0.4148
739 0.4056
740 0.4064
741 0.4044
742 0.4015
743 0.4078
744 0.414
745 0.4099
746 0.4145
747 0.4131
748 0.4147
749 0.4125
750 0.408
