# Top-of-atmosphere (TOA) lunar irradiance from Miller and Turner (2009) by 10 nm increments
# First column wavelength (nm), second column TOA irradiance# Phase angle = 175
# Units = mW/m^2-micrometer

300 0.558
310 0.5547
320 0.8387
330 1.36
340 1.222
350 1.125
360 1.482
370 1.782
380 1.55
390 1.828
400 2.627
410 2.737
420 2.841
430 2.502
440 3.046
450 3.615
460 3.706
470 3.734
480 3.978
490 3.865
500 3.817
510 3.857
520 3.681
530 3.932
540 3.893
550 4.067
560 3.851
570 3.984
580 4.052
590 3.795
600 4.09
610 4.035
620 4.036
630 4.055
640 4.003
650 3.881
660 3.904
670 3.92
680 3.847
690 3.865
700 3.845
710 3.724
720 3.633
730 3.54
740 3.474
750 3.477
