# Top-of-atmosphere (TOA) lunar irradiance from Miller and Turner (2009) by 10 nm increments
# First column wavelength (nm), second column TOA irradiance# Phase angle = 141
# Units = mW/m^2-micrometer

300 0.2259
310 0.2251
320 0.341
330 0.5544
340 0.4991
350 0.4606
360 0.6078
370 0.7326
380 0.6384
390 0.7544
400 1.087
410 1.135
420 1.18
430 1.042
440 1.271
450 1.511
460 1.553
470 1.568
480 1.674
490 1.63
500 1.613
510 1.634
520 1.563
530 1.673
540 1.66
550 1.738
560 1.649
570 1.709
580 1.743
590 1.635
600 1.766
610 1.746
620 1.751
630 1.763
640 1.744
650 1.694
660 1.708
670 1.718
680 1.69
690 1.702
700 1.697
710 1.647
720 1.61
730 1.572
740 1.546
750 1.551
