# Top-of-atmosphere (TOA) lunar irradiance from Miller and Turner (2009) by 10 nm increments
# First column wavelength (nm), second column TOA irradiance# Phase angle = 153
# Units = mW/m^2-micrometer

300 0.3104
310 0.309
320 0.4679
330 0.76
340 0.6837
350 0.6305
360 0.8313
370 1.001
380 0.8719
390 1.03
400 1.482
410 1.546
420 1.607
430 1.417
440 1.728
450 2.054
460 2.109
470 2.128
480 2.27
490 2.208
500 2.184
510 2.21
520 2.112
530 2.259
540 2.24
550 2.343
560 2.222
570 2.302
580 2.345
590 2.199
600 2.373
610 2.345
620 2.349
630 2.363
640 2.336
650 2.268
660 2.284
670 2.297
680 2.257
690 2.271
700 2.263
710 2.195
720 2.144
730 2.092
740 2.056
750 2.06
