# Top-of-atmosphere (TOA) lunar irradiance from Miller and Turner (2009)
# First column wavelength (nm), second column TOA irradiance# Lunar phase angle: 125
# Irradiance units: mW/m^2-micrometer

300 0.1535
301 0.1141
302 0.1437
303 0.1373
304 0.1942
305 0.1809
306 0.1847
307 0.1708
308 0.1987
309 0.2004
310 0.153
311 0.2033
312 0.2412
313 0.2094
314 0.2272
315 0.2088
316 0.215
317 0.1965
318 0.2736
319 0.2104
320 0.2319
321 0.2865
322 0.2273
323 0.2382
324 0.2221
325 0.2662
326 0.2982
327 0.3399
328 0.33
329 0.3069
330 0.3772
331 0.3482
332 0.3448
333 0.3346
334 0.3206
335 0.3429
336 0.3496
337 0.2767
338 0.3038
339 0.3261
340 0.3397
341 0.3752
342 0.329
343 0.366
344 0.3679
345 0.2655
346 0.3623
347 0.3363
348 0.3336
349 0.3479
350 0.3136
351 0.4144
352 0.3699
353 0.3313
354 0.3998
355 0.4255
356 0.399
357 0.3567
358 0.324
359 0.2419
360 0.4139
361 0.3904
362 0.3461
363 0.3957
364 0.3737
365 0.4033
366 0.4629
367 0.4929
368 0.4754
369 0.4241
370 0.4991
371 0.4426
372 0.512
373 0.423
374 0.3652
375 0.3727
376 0.448
377 0.4397
378 0.53
379 0.569
380 0.4351
381 0.5095
382 0.4632
383 0.3323
384 0.2769
385 0.4016
386 0.4227
387 0.4281
388 0.4182
389 0.4023
390 0.5144
391 0.5264
392 0.613
393 0.4636
394 0.202
395 0.4676
396 0.605
397 0.3216
398 0.3616
399 0.6893
400 0.7414
401 0.745
402 0.8105
403 0.8233
404 0.8064
405 0.7882
406 0.7662
407 0.7464
408 0.7569
409 0.7676
410 0.7742
411 0.7173
412 0.7467
413 0.7761
414 0.8058
415 0.809
416 0.8111
417 0.8216
418 0.8053
419 0.805
420 0.8058
421 0.8258
422 0.8418
423 0.813
424 0.8033
425 0.823
426 0.8174
427 0.8141
428 0.784
429 0.7837
430 0.7114
431 0.5941
432 0.7363
433 0.8138
434 0.8034
435 0.7869
436 0.846
437 0.8938
438 0.8665
439 0.8332
440 0.8684
441 0.9065
442 0.9413
443 0.9704
444 0.9736
445 0.9747
446 0.9588
447 0.953
448 1.009
449 1.022
450 1.033
451 1.08
452 1.085
453 1.035
454 1.009
455 1.056
456 1.064
457 1.093
458 1.094
459 1.068
460 1.062
461 1.079
462 1.097
463 1.108
464 1.096
465 1.072
466 1.073
467 1.065
468 1.06
469 1.08
470 1.073
471 1.058
472 1.085
473 1.119
474 1.105
475 1.13
476 1.13
477 1.115
478 1.145
479 1.146
480 1.145
481 1.141
482 1.15
483 1.14
484 1.126
485 1.114
486 1.014
487 0.9584
488 1.038
489 1.071
490 1.116
491 1.133
492 1.094
493 1.092
494 1.106
495 1.133
496 1.135
497 1.131
498 1.123
499 1.106
500 1.105
501 1.088
502 1.067
503 1.09
504 1.112
505 1.108
506 1.15
507 1.169
508 1.153
509 1.136
510 1.119
511 1.108
512 1.131
513 1.119
514 1.093
515 1.08
516 1.097
517 1.023
518 0.9624
519 0.9997
520 1.071
521 1.092
522 1.113
523 1.091
524 1.111
525 1.146
526 1.134
527 1.039
528 1.065
529 1.135
530 1.147
531 1.164
532 1.167
533 1.155
534 1.14
535 1.145
536 1.18
537 1.154
538 1.155
539 1.163
540 1.138
541 1.116
542 1.142
543 1.156
544 1.167
545 1.178
546 1.182
547 1.183
548 1.17
549 1.177
550 1.192
551 1.187
552 1.192
553 1.191
554 1.189
555 1.202
556 1.197
557 1.174
558 1.16
559 1.146
560 1.132
561 1.16
562 1.172
563 1.159
564 1.166
565 1.17
566 1.161
567 1.163
568 1.184
569 1.176
570 1.174
571 1.163
572 1.166
573 1.212
574 1.219
575 1.21
576 1.193
577 1.199
578 1.202
579 1.187
580 1.197
581 1.209
582 1.216
583 1.229
584 1.231
585 1.223
586 1.202
587 1.201
588 1.218
589 1.173
590 1.124
591 1.179
592 1.208
593 1.212
594 1.211
595 1.216
596 1.211
597 1.221
598 1.221
599 1.21
600 1.214
601 1.208
602 1.195
603 1.201
604 1.224
605 1.23
606 1.224
607 1.221
608 1.217
609 1.206
610 1.201
611 1.202
612 1.206
613 1.201
614 1.187
615 1.187
616 1.179
617 1.158
618 1.177
619 1.196
620 1.204
621 1.216
622 1.209
623 1.203
624 1.197
625 1.187
626 1.184
627 1.208
628 1.224
629 1.226
630 1.213
631 1.208
632 1.192
633 1.208
634 1.202
635 1.207
636 1.208
637 1.206
638 1.224
639 1.224
640 1.2
641 1.192
642 1.188
643 1.202
644 1.199
645 1.201
646 1.192
647 1.195
648 1.204
649 1.202
650 1.167
651 1.209
652 1.216
653 1.2
654 1.191
655 1.173
656 1.097
657 1.008
658 1.117
659 1.172
660 1.177
661 1.188
662 1.195
663 1.192
664 1.179
665 1.183
666 1.187
667 1.181
668 1.178
669 1.187
670 1.184
671 1.181
672 1.176
673 1.173
674 1.172
675 1.17
676 1.169
677 1.168
678 1.167
679 1.166
680 1.165
681 1.165
682 1.164
683 1.164
684 1.164
685 1.164
686 1.164
687 1.164
688 1.165
689 1.167
690 1.174
691 1.176
692 1.171
693 1.167
694 1.17
695 1.164
696 1.164
697 1.168
698 1.152
699 1.167
700 1.171
701 1.155
702 1.149
703 1.154
704 1.16
705 1.172
706 1.165
707 1.152
708 1.154
709 1.144
710 1.137
711 1.142
712 1.127
713 1.123
714 1.126
715 1.124
716 1.12
717 1.126
718 1.125
719 1.111
720 1.112
721 1.114
722 1.115
723 1.115
724 1.12
725 1.117
726 1.108
727 1.112
728 1.11
729 1.09
730 1.086
731 1.107
732 1.104
733 1.104
734 1.105
735 1.106
736 1.094
737 1.092
738 1.091
739 1.067
740 1.069
741 1.063
742 1.056
743 1.072
744 1.088
745 1.077
746 1.089
747 1.086
748 1.09
749 1.084
750 1.072
