# Top-of-atmosphere (TOA) lunar irradiance from Miller and Turner (2009)
# First column wavelength (nm), second column TOA irradiance# Lunar phase angle: 72
# Irradiance units: mW/m^2-micrometer

300 0.02712
301 0.02017
302 0.0254
303 0.02427
304 0.03433
305 0.03198
306 0.03265
307 0.03021
308 0.03513
309 0.03544
310 0.02706
311 0.03596
312 0.04267
313 0.03706
314 0.04021
315 0.03695
316 0.03806
317 0.03479
318 0.04845
319 0.03727
320 0.04108
321 0.05075
322 0.04027
323 0.04221
324 0.03937
325 0.04719
326 0.05286
327 0.06027
328 0.05852
329 0.05442
330 0.06689
331 0.06177
332 0.06118
333 0.05937
334 0.05689
335 0.06086
336 0.06205
337 0.04913
338 0.05394
339 0.05792
340 0.06032
341 0.06664
342 0.05844
343 0.06503
344 0.06538
345 0.04718
346 0.06439
347 0.05978
348 0.05931
349 0.06186
350 0.05577
351 0.07371
352 0.0658
353 0.05894
354 0.07115
355 0.07572
356 0.07101
357 0.0635
358 0.05768
359 0.04308
360 0.07371
361 0.06954
362 0.06165
363 0.0705
364 0.06658
365 0.07187
366 0.08251
367 0.08785
368 0.08474
369 0.07562
370 0.08901
371 0.07893
372 0.09132
373 0.07546
374 0.06516
375 0.0665
376 0.07995
377 0.07848
378 0.09461
379 0.1016
380 0.0777
381 0.091
382 0.08273
383 0.05936
384 0.04948
385 0.07177
386 0.07554
387 0.07652
388 0.07476
389 0.07192
390 0.09198
391 0.09414
392 0.1096
393 0.08293
394 0.03613
395 0.08367
396 0.1083
397 0.05756
398 0.06473
399 0.1234
400 0.1328
401 0.1334
402 0.1452
403 0.1475
404 0.1445
405 0.1412
406 0.1373
407 0.1338
408 0.1357
409 0.1376
410 0.1388
411 0.1286
412 0.1339
413 0.1392
414 0.1445
415 0.1451
416 0.1455
417 0.1474
418 0.1445
419 0.1445
420 0.1447
421 0.1483
422 0.1512
423 0.146
424 0.1443
425 0.1479
426 0.1469
427 0.1463
428 0.1409
429 0.1409
430 0.1279
431 0.1068
432 0.1324
433 0.1464
434 0.1445
435 0.1416
436 0.1522
437 0.1608
438 0.156
439 0.15
440 0.1563
441 0.1632
442 0.1695
443 0.1748
444 0.1754
445 0.1756
446 0.1727
447 0.1717
448 0.1819
449 0.1842
450 0.1862
451 0.1947
452 0.1957
453 0.1866
454 0.182
455 0.1905
456 0.1919
457 0.1972
458 0.1975
459 0.1927
460 0.1917
461 0.1948
462 0.198
463 0.2001
464 0.198
465 0.1937
466 0.1939
467 0.1925
468 0.1916
469 0.1952
470 0.1939
471 0.1912
472 0.1961
473 0.2023
474 0.1998
475 0.2044
476 0.2044
477 0.2018
478 0.2072
479 0.2073
480 0.2073
481 0.2065
482 0.2082
483 0.2065
484 0.204
485 0.2017
486 0.1837
487 0.1736
488 0.1881
489 0.1941
490 0.2022
491 0.2053
492 0.1983
493 0.198
494 0.2006
495 0.2056
496 0.2058
497 0.2052
498 0.2038
499 0.2006
500 0.2005
501 0.1974
502 0.1937
503 0.198
504 0.2019
505 0.2013
506 0.2089
507 0.2123
508 0.2094
509 0.2065
510 0.2034
511 0.2013
512 0.2055
513 0.2035
514 0.1988
515 0.1964
516 0.1996
517 0.186
518 0.1751
519 0.1819
520 0.1949
521 0.1987
522 0.2025
523 0.1987
524 0.2024
525 0.2087
526 0.2066
527 0.1893
528 0.194
529 0.2067
530 0.209
531 0.2122
532 0.2128
533 0.2106
534 0.2079
535 0.2087
536 0.2151
537 0.2105
538 0.2107
539 0.2123
540 0.2077
541 0.2037
542 0.2084
543 0.211
544 0.213
545 0.2151
546 0.2158
547 0.2161
548 0.2138
549 0.215
550 0.2178
551 0.2169
552 0.2179
553 0.2178
554 0.2174
555 0.2198
556 0.2189
557 0.2146
558 0.2122
559 0.2097
560 0.2071
561 0.2123
562 0.2145
563 0.2122
564 0.2135
565 0.2142
566 0.2126
567 0.2129
568 0.2169
569 0.2154
570 0.215
571 0.2131
572 0.2137
573 0.2222
574 0.2235
575 0.2218
576 0.2187
577 0.2198
578 0.2205
579 0.2177
580 0.2196
581 0.2218
582 0.2231
583 0.2255
584 0.226
585 0.2245
586 0.2207
587 0.2205
588 0.2237
589 0.2154
590 0.2064
591 0.2166
592 0.222
593 0.2227
594 0.2226
595 0.2235
596 0.2227
597 0.2245
598 0.2245
599 0.2226
600 0.2234
601 0.2222
602 0.2198
603 0.221
604 0.2253
605 0.2264
606 0.2253
607 0.2247
608 0.2241
609 0.2222
610 0.2212
611 0.2215
612 0.2221
613 0.2213
614 0.2188
615 0.2188
616 0.2173
617 0.2135
618 0.2171
619 0.2205
620 0.2221
621 0.2244
622 0.2231
623 0.2219
624 0.2209
625 0.2191
626 0.2186
627 0.2231
628 0.2261
629 0.2264
630 0.224
631 0.2232
632 0.2202
633 0.2232
634 0.2222
635 0.2232
636 0.2233
637 0.2229
638 0.2262
639 0.2263
640 0.222
641 0.2205
642 0.2198
643 0.2224
644 0.2218
645 0.2223
646 0.2206
647 0.2211
648 0.2229
649 0.2225
650 0.2161
651 0.224
652 0.2253
653 0.2223
654 0.2207
655 0.2174
656 0.2033
657 0.1869
658 0.2071
659 0.2173
660 0.2182
661 0.2203
662 0.2217
663 0.2212
664 0.2187
665 0.2195
666 0.2202
667 0.2192
668 0.2188
669 0.2203
670 0.2199
671 0.2193
672 0.2184
673 0.2179
674 0.2177
675 0.2175
676 0.2173
677 0.2171
678 0.2169
679 0.2168
680 0.2167
681 0.2166
682 0.2166
683 0.2165
684 0.2165
685 0.2166
686 0.2166
687 0.2167
688 0.2168
689 0.2173
690 0.2186
691 0.2191
692 0.2181
693 0.2175
694 0.218
695 0.2169
696 0.2168
697 0.2176
698 0.2148
699 0.2176
700 0.2183
701 0.2155
702 0.2142
703 0.2152
704 0.2164
705 0.2188
706 0.2175
707 0.215
708 0.2154
709 0.2136
710 0.2123
711 0.2132
712 0.2104
713 0.2098
714 0.2103
715 0.21
716 0.2094
717 0.2104
718 0.2103
719 0.2077
720 0.2079
721 0.2084
722 0.2086
723 0.2085
724 0.2095
725 0.209
726 0.2074
727 0.2081
728 0.2078
729 0.2041
730 0.2033
731 0.2072
732 0.2068
733 0.2068
734 0.2069
735 0.2071
736 0.205
737 0.2046
738 0.2044
739 0.1999
740 0.2003
741 0.1993
742 0.1979
743 0.201
744 0.2041
745 0.2021
746 0.2044
747 0.2037
748 0.2045
749 0.2035
750 0.2013
