# Top-of-atmosphere (TOA) lunar irradiance from Miller and Turner (2009) by 10 nm increments
# First column wavelength (nm), second column TOA irradiance# Phase angle = 138
# Units = mW/m^2-micrometer

300 0.2096
310 0.2089
320 0.3166
330 0.5147
340 0.4634
350 0.4277
360 0.5644
370 0.6804
380 0.5929
390 0.7008
400 1.01
410 1.054
420 1.097
430 0.9681
440 1.181
450 1.405
460 1.444
470 1.458
480 1.557
490 1.516
500 1.5
510 1.52
520 1.454
530 1.556
540 1.544
550 1.617
560 1.535
570 1.591
580 1.622
590 1.523
600 1.645
610 1.626
620 1.631
630 1.642
640 1.624
650 1.579
660 1.591
670 1.601
680 1.575
690 1.586
700 1.582
710 1.536
720 1.501
730 1.466
740 1.442
750 1.446
