# Top-of-atmosphere (TOA) lunar irradiance from Miller and Turner (2009)
# First column wavelength (nm), second column TOA irradiance# Lunar phase angle: 147
# Irradiance units: mW/m^2-micrometer

300 0.265
301 0.197
302 0.2481
303 0.237
304 0.3352
305 0.3122
306 0.3187
307 0.2947
308 0.3427
309 0.3457
310 0.2639
311 0.3506
312 0.4159
313 0.3612
314 0.3918
315 0.36
316 0.3706
317 0.3387
318 0.4717
319 0.3627
320 0.3997
321 0.4938
322 0.3917
323 0.4105
324 0.3828
325 0.4587
326 0.5137
327 0.5856
328 0.5685
329 0.5285
330 0.6496
331 0.5997
332 0.5938
333 0.5762
334 0.552
335 0.5904
336 0.6018
337 0.4763
338 0.5229
339 0.5613
340 0.5845
341 0.6456
342 0.5661
343 0.6298
344 0.633
345 0.4567
346 0.6232
347 0.5784
348 0.5738
349 0.5982
350 0.5393
351 0.7126
352 0.6359
353 0.5696
354 0.6874
355 0.7314
356 0.6858
357 0.6131
358 0.5568
359 0.4157
360 0.7113
361 0.6709
362 0.5946
363 0.6798
364 0.6419
365 0.6927
366 0.7951
367 0.8465
368 0.8163
369 0.7283
370 0.857
371 0.7598
372 0.8789
373 0.7261
374 0.6269
375 0.6396
376 0.7688
377 0.7546
378 0.9094
379 0.9764
380 0.7465
381 0.8741
382 0.7946
383 0.57
384 0.475
385 0.6889
386 0.7249
387 0.7341
388 0.7171
389 0.6897
390 0.8819
391 0.9025
392 1.051
393 0.7946
394 0.3461
395 0.8013
396 1.037
397 0.5511
398 0.6196
399 1.181
400 1.27
401 1.276
402 1.388
403 1.41
404 1.381
405 1.35
406 1.312
407 1.278
408 1.296
409 1.314
410 1.325
411 1.228
412 1.278
413 1.328
414 1.379
415 1.384
416 1.388
417 1.406
418 1.378
419 1.377
420 1.378
421 1.412
422 1.44
423 1.39
424 1.374
425 1.407
426 1.397
427 1.392
428 1.34
429 1.34
430 1.216
431 1.015
432 1.258
433 1.391
434 1.373
435 1.344
436 1.445
437 1.527
438 1.48
439 1.423
440 1.483
441 1.548
442 1.607
443 1.657
444 1.662
445 1.664
446 1.637
447 1.627
448 1.723
449 1.745
450 1.763
451 1.843
452 1.852
453 1.766
454 1.722
455 1.801
456 1.814
457 1.865
458 1.866
459 1.821
460 1.811
461 1.84
462 1.87
463 1.889
464 1.869
465 1.828
466 1.829
467 1.816
468 1.807
469 1.84
470 1.828
471 1.802
472 1.848
473 1.906
474 1.882
475 1.925
476 1.924
477 1.899
478 1.95
479 1.951
480 1.95
481 1.942
482 1.958
483 1.941
484 1.917
485 1.896
486 1.726
487 1.631
488 1.767
489 1.823
490 1.898
491 1.927
492 1.861
493 1.858
494 1.881
495 1.928
496 1.93
497 1.924
498 1.91
499 1.88
500 1.878
501 1.849
502 1.814
503 1.854
504 1.89
505 1.884
506 1.954
507 1.986
508 1.958
509 1.931
510 1.901
511 1.882
512 1.92
513 1.901
514 1.856
515 1.834
516 1.863
517 1.736
518 1.634
519 1.697
520 1.818
521 1.853
522 1.889
523 1.852
524 1.886
525 1.945
526 1.925
527 1.764
528 1.807
529 1.925
530 1.945
531 1.974
532 1.98
533 1.959
534 1.933
535 1.941
536 2
537 1.956
538 1.958
539 1.972
540 1.929
541 1.892
542 1.935
543 1.959
544 1.977
545 1.996
546 2.002
547 2.004
548 1.983
549 1.994
550 2.019
551 2.01
552 2.019
553 2.017
554 2.013
555 2.035
556 2.027
557 1.987
558 1.964
559 1.94
560 1.915
561 1.964
562 1.983
563 1.962
564 1.973
565 1.98
566 1.964
567 1.966
568 2.003
569 1.988
570 1.985
571 1.966
572 1.971
573 2.049
574 2.061
575 2.045
576 2.016
577 2.026
578 2.032
579 2.006
580 2.023
581 2.042
582 2.054
583 2.076
584 2.079
585 2.066
586 2.03
587 2.028
588 2.057
589 1.98
590 1.897
591 1.991
592 2.039
593 2.045
594 2.044
595 2.052
596 2.045
597 2.06
598 2.06
599 2.042
600 2.049
601 2.038
602 2.015
603 2.026
604 2.065
605 2.074
606 2.064
607 2.058
608 2.052
609 2.034
610 2.025
611 2.027
612 2.032
613 2.024
614 2.001
615 2.001
616 1.987
617 1.951
618 1.983
619 2.015
620 2.029
621 2.049
622 2.036
623 2.025
624 2.016
625 1.999
626 1.994
627 2.035
628 2.061
629 2.064
630 2.042
631 2.034
632 2.006
633 2.033
634 2.023
635 2.032
636 2.033
637 2.029
638 2.058
639 2.059
640 2.019
641 2.005
642 1.998
643 2.021
644 2.016
645 2.02
646 2.004
647 2.008
648 2.024
649 2.02
650 1.961
651 2.032
652 2.044
653 2.016
654 2.001
655 1.971
656 1.842
657 1.694
658 1.876
659 1.968
660 1.976
661 1.994
662 2.007
663 2.002
664 1.979
665 1.986
666 1.992
667 1.982
668 1.978
669 1.992
670 1.988
671 1.981
672 1.973
673 1.968
674 1.966
675 1.963
676 1.961
677 1.959
678 1.957
679 1.956
680 1.954
681 1.953
682 1.952
683 1.952
684 1.951
685 1.951
686 1.951
687 1.951
688 1.952
689 1.956
690 1.967
691 1.971
692 1.962
693 1.956
694 1.96
695 1.95
696 1.949
697 1.956
698 1.93
699 1.954
700 1.96
701 1.934
702 1.923
703 1.932
704 1.942
705 1.962
706 1.951
707 1.928
708 1.931
709 1.914
710 1.902
711 1.91
712 1.885
713 1.878
714 1.883
715 1.88
716 1.874
717 1.883
718 1.881
719 1.857
720 1.859
721 1.863
722 1.865
723 1.863
724 1.871
725 1.867
726 1.852
727 1.858
728 1.855
729 1.822
730 1.814
731 1.848
732 1.845
733 1.844
734 1.845
735 1.846
736 1.827
737 1.823
738 1.821
739 1.781
740 1.784
741 1.774
742 1.762
743 1.789
744 1.816
745 1.798
746 1.818
747 1.811
748 1.818
749 1.808
750 1.788
