# Top-of-atmosphere (TOA) lunar irradiance from Miller and Turner (2009) by 10 nm increments
# First column wavelength (nm), second column TOA irradiance# Phase angle = 158
# Units = mW/m^2-micrometer

300 0.3537
310 0.352
320 0.5329
330 0.8653
340 0.7782
350 0.7174
360 0.9456
370 1.139
380 0.9912
390 1.17
400 1.684
410 1.756
420 1.825
430 1.609
440 1.961
450 2.33
460 2.391
470 2.412
480 2.572
490 2.502
500 2.473
510 2.503
520 2.391
530 2.557
540 2.534
550 2.65
560 2.513
570 2.602
580 2.65
590 2.484
600 2.68
610 2.647
620 2.651
630 2.666
640 2.635
650 2.557
660 2.575
670 2.588
680 2.543
690 2.558
700 2.548
710 2.47
720 2.412
730 2.353
740 2.312
750 2.316
