# Top-of-atmosphere (TOA) lunar irradiance from Miller and Turner (2009) by 10 nm increments
# First column wavelength (nm), second column TOA irradiance# Phase angle = 85
# Units = mW/m^2-micrometer

300 0.04718
310 0.04706
320 0.07137
330 0.1162
340 0.1047
350 0.09671
360 0.1277
370 0.1541
380 0.1345
390 0.1591
400 0.2294
410 0.2398
420 0.2497
430 0.2206
440 0.2695
450 0.3208
460 0.3299
470 0.3335
480 0.3564
490 0.3474
500 0.3442
510 0.349
520 0.3342
530 0.358
540 0.3556
550 0.3727
560 0.3541
570 0.3675
580 0.375
590 0.3523
600 0.381
610 0.377
620 0.3784
630 0.3814
640 0.3777
650 0.3674
660 0.3707
670 0.3734
680 0.3677
690 0.3706
700 0.3699
710 0.3594
720 0.3517
730 0.3438
740 0.3385
750 0.3399
