# Top-of-atmosphere (TOA) lunar irradiance from Miller and Turner (2009) by 10 nm increments
# First column wavelength (nm), second column TOA irradiance# Phase angle = 130
# Units = mW/m^2-micrometer

300 0.1729
310 0.1723
320 0.2612
330 0.4247
340 0.3825
350 0.3531
360 0.4661
370 0.562
380 0.4899
390 0.5791
400 0.8347
410 0.8715
420 0.9071
430 0.8007
440 0.9773
450 1.163
460 1.195
470 1.207
480 1.289
490 1.256
500 1.243
510 1.259
520 1.205
530 1.29
540 1.28
550 1.341
560 1.273
570 1.32
580 1.346
590 1.264
600 1.365
610 1.35
620 1.354
630 1.364
640 1.35
650 1.312
660 1.323
670 1.331
680 1.31
690 1.319
700 1.316
710 1.278
720 1.25
730 1.22
740 1.201
750 1.205
