# Top-of-atmosphere (TOA) lunar irradiance from Miller and Turner (2009) by 10 nm increments
# First column wavelength (nm), second column TOA irradiance# Phase angle = 154
# Units = mW/m^2-micrometer

300 0.3186
310 0.3172
320 0.4802
330 0.78
340 0.7016
350 0.647
360 0.853
370 1.027
380 0.8945
390 1.056
400 1.521
410 1.586
420 1.649
430 1.454
440 1.773
450 2.106
460 2.162
470 2.182
480 2.327
490 2.264
500 2.239
510 2.266
520 2.165
530 2.316
540 2.296
550 2.402
560 2.277
570 2.359
580 2.403
590 2.253
600 2.432
610 2.402
620 2.406
630 2.421
640 2.393
650 2.323
660 2.34
670 2.352
680 2.312
690 2.326
700 2.317
710 2.247
720 2.195
730 2.142
740 2.105
750 2.109
