# Top-of-atmosphere (TOA) lunar irradiance from Miller and Turner (2009)
# First column wavelength (nm), second column TOA irradiance# Lunar phase angle: 131
# Irradiance units: mW/m^2-micrometer

300 0.1771
301 0.1317
302 0.1658
303 0.1585
304 0.2241
305 0.2087
306 0.2131
307 0.1971
308 0.2292
309 0.2312
310 0.1765
311 0.2345
312 0.2782
313 0.2416
314 0.2621
315 0.2409
316 0.248
317 0.2267
318 0.3156
319 0.2428
320 0.2675
321 0.3305
322 0.2622
323 0.2748
324 0.2563
325 0.3071
326 0.344
327 0.3921
328 0.3807
329 0.354
330 0.4351
331 0.4017
332 0.3978
333 0.386
334 0.3698
335 0.3955
336 0.4032
337 0.3192
338 0.3504
339 0.3762
340 0.3918
341 0.4327
342 0.3794
343 0.4222
344 0.4244
345 0.3062
346 0.4178
347 0.3878
348 0.3848
349 0.4012
350 0.3617
351 0.478
352 0.4266
353 0.3821
354 0.4611
355 0.4907
356 0.4601
357 0.4114
358 0.3736
359 0.279
360 0.4774
361 0.4503
362 0.3991
363 0.4563
364 0.4309
365 0.4651
366 0.5339
367 0.5683
368 0.5482
369 0.4891
370 0.5756
371 0.5103
372 0.5904
373 0.4877
374 0.4211
375 0.4297
376 0.5165
377 0.507
378 0.6111
379 0.6561
380 0.5017
381 0.5875
382 0.5341
383 0.3831
384 0.3193
385 0.4631
386 0.4874
387 0.4936
388 0.4822
389 0.4638
390 0.5931
391 0.607
392 0.7067
393 0.5345
394 0.2328
395 0.5391
396 0.6975
397 0.3708
398 0.4169
399 0.7946
400 0.8548
401 0.8588
402 0.9344
403 0.9492
404 0.9297
405 0.9086
406 0.8833
407 0.8604
408 0.8725
409 0.8848
410 0.8925
411 0.8269
412 0.8607
413 0.8947
414 0.9289
415 0.9325
416 0.9349
417 0.947
418 0.9283
419 0.9279
420 0.9289
421 0.9518
422 0.9703
423 0.9371
424 0.9259
425 0.9486
426 0.9421
427 0.9383
428 0.9036
429 0.9033
430 0.8199
431 0.6847
432 0.8486
433 0.938
434 0.926
435 0.9069
436 0.9751
437 1.03
438 0.9987
439 0.9603
440 1.001
441 1.045
442 1.085
443 1.118
444 1.122
445 1.123
446 1.105
447 1.098
448 1.163
449 1.178
450 1.19
451 1.244
452 1.251
453 1.193
454 1.163
455 1.217
456 1.226
457 1.26
458 1.261
459 1.23
460 1.224
461 1.243
462 1.264
463 1.277
464 1.263
465 1.236
466 1.237
467 1.228
468 1.222
469 1.244
470 1.236
471 1.219
472 1.25
473 1.289
474 1.273
475 1.302
476 1.302
477 1.285
478 1.319
479 1.32
480 1.32
481 1.314
482 1.325
483 1.314
484 1.298
485 1.283
486 1.168
487 1.104
488 1.196
489 1.234
490 1.285
491 1.305
492 1.26
493 1.258
494 1.274
495 1.306
496 1.307
497 1.303
498 1.294
499 1.274
500 1.272
501 1.253
502 1.229
503 1.256
504 1.281
505 1.277
506 1.325
507 1.346
508 1.328
509 1.309
510 1.289
511 1.276
512 1.302
513 1.289
514 1.259
515 1.244
516 1.264
517 1.178
518 1.108
519 1.151
520 1.233
521 1.257
522 1.281
523 1.257
524 1.28
525 1.32
526 1.306
527 1.197
528 1.227
529 1.307
530 1.321
531 1.341
532 1.344
533 1.331
534 1.313
535 1.318
536 1.358
537 1.329
538 1.33
539 1.34
540 1.311
541 1.286
542 1.315
543 1.331
544 1.344
545 1.357
546 1.361
547 1.362
548 1.348
549 1.355
550 1.373
551 1.367
552 1.373
553 1.372
554 1.369
555 1.384
556 1.378
557 1.351
558 1.336
559 1.32
560 1.303
561 1.336
562 1.349
563 1.335
564 1.343
565 1.347
566 1.337
567 1.339
568 1.363
569 1.354
570 1.351
571 1.339
572 1.342
573 1.396
574 1.403
575 1.393
576 1.373
577 1.38
578 1.384
579 1.366
580 1.378
581 1.391
582 1.399
583 1.414
584 1.417
585 1.408
586 1.384
587 1.382
588 1.402
589 1.35
590 1.294
591 1.357
592 1.39
593 1.395
594 1.394
595 1.399
596 1.394
597 1.405
598 1.405
599 1.393
600 1.398
601 1.39
602 1.375
603 1.382
604 1.409
605 1.415
606 1.409
607 1.405
608 1.4
609 1.388
610 1.382
611 1.384
612 1.387
613 1.382
614 1.366
615 1.366
616 1.357
617 1.333
618 1.355
619 1.376
620 1.386
621 1.4
622 1.391
623 1.384
624 1.377
625 1.366
626 1.363
627 1.391
628 1.409
629 1.411
630 1.396
631 1.39
632 1.372
633 1.39
634 1.384
635 1.389
636 1.39
637 1.388
638 1.408
639 1.408
640 1.381
641 1.372
642 1.367
643 1.383
644 1.379
645 1.382
646 1.372
647 1.374
648 1.385
649 1.382
650 1.343
651 1.391
652 1.399
653 1.38
654 1.37
655 1.35
656 1.262
657 1.16
658 1.285
659 1.348
660 1.354
661 1.366
662 1.375
663 1.371
664 1.356
665 1.361
666 1.365
667 1.358
668 1.355
669 1.365
670 1.362
671 1.358
672 1.353
673 1.349
674 1.348
675 1.346
676 1.345
677 1.343
678 1.342
679 1.341
680 1.34
681 1.34
682 1.339
683 1.339
684 1.339
685 1.339
686 1.339
687 1.339
688 1.339
689 1.342
690 1.35
691 1.353
692 1.347
693 1.343
694 1.346
695 1.339
696 1.338
697 1.343
698 1.325
699 1.342
700 1.346
701 1.329
702 1.321
703 1.327
704 1.334
705 1.348
706 1.34
707 1.325
708 1.327
709 1.316
710 1.307
711 1.313
712 1.296
713 1.291
714 1.295
715 1.293
716 1.288
717 1.295
718 1.294
719 1.277
720 1.279
721 1.281
722 1.283
723 1.282
724 1.288
725 1.285
726 1.275
727 1.279
728 1.277
729 1.254
730 1.249
731 1.272
732 1.27
733 1.27
734 1.27
735 1.271
736 1.258
737 1.255
738 1.254
739 1.226
740 1.229
741 1.222
742 1.214
743 1.232
744 1.251
745 1.239
746 1.252
747 1.248
748 1.253
749 1.246
750 1.233
