# Top-of-atmosphere (TOA) lunar irradiance from Miller and Turner (2009)
# First column wavelength (nm), second column TOA irradiance# Lunar phase angle: 69
# Irradiance units: mW/m^2-micrometer

300 0.02348
301 0.01746
302 0.02199
303 0.02102
304 0.02973
305 0.02769
306 0.02828
307 0.02616
308 0.03043
309 0.03069
310 0.02344
311 0.03115
312 0.03696
313 0.0321
314 0.03483
315 0.03201
316 0.03296
317 0.03013
318 0.04197
319 0.03228
320 0.03559
321 0.04397
322 0.03488
323 0.03657
324 0.03411
325 0.04088
326 0.04579
327 0.05222
328 0.0507
329 0.04715
330 0.05796
331 0.05352
332 0.05301
333 0.05145
334 0.0493
335 0.05274
336 0.05377
337 0.04257
338 0.04675
339 0.05019
340 0.05228
341 0.05775
342 0.05065
343 0.05636
344 0.05667
345 0.04089
346 0.05581
347 0.05181
348 0.05141
349 0.05362
350 0.04834
351 0.0639
352 0.05703
353 0.0511
354 0.06168
355 0.06564
356 0.06156
357 0.05505
358 0.05001
359 0.03734
360 0.06391
361 0.06029
362 0.05345
363 0.06112
364 0.05773
365 0.06231
366 0.07154
367 0.07618
368 0.07348
369 0.06558
370 0.07718
371 0.06845
372 0.07919
373 0.06544
374 0.05651
375 0.05767
376 0.06933
377 0.06807
378 0.08205
379 0.08811
380 0.06739
381 0.07892
382 0.07176
383 0.05148
384 0.04291
385 0.06225
386 0.06553
387 0.06637
388 0.06485
389 0.06239
390 0.07979
391 0.08167
392 0.09512
393 0.07194
394 0.03135
395 0.07259
396 0.09393
397 0.04994
398 0.05616
399 0.1071
400 0.1152
401 0.1158
402 0.126
403 0.128
404 0.1254
405 0.1225
406 0.1192
407 0.1161
408 0.1177
409 0.1194
410 0.1205
411 0.1116
412 0.1162
413 0.1208
414 0.1255
415 0.126
416 0.1263
417 0.128
418 0.1255
419 0.1254
420 0.1256
421 0.1287
422 0.1312
423 0.1268
424 0.1253
425 0.1284
426 0.1275
427 0.127
428 0.1223
429 0.1223
430 0.111
431 0.09274
432 0.115
433 0.1271
434 0.1255
435 0.1229
436 0.1322
437 0.1397
438 0.1354
439 0.1302
440 0.1357
441 0.1417
442 0.1472
443 0.1518
444 0.1523
445 0.1525
446 0.15
447 0.1491
448 0.158
449 0.16
450 0.1617
451 0.1691
452 0.17
453 0.1621
454 0.1581
455 0.1654
456 0.1667
457 0.1713
458 0.1715
459 0.1674
460 0.1665
461 0.1692
462 0.172
463 0.1738
464 0.172
465 0.1683
466 0.1684
467 0.1672
468 0.1665
469 0.1696
470 0.1685
471 0.1661
472 0.1704
473 0.1758
474 0.1736
475 0.1776
476 0.1776
477 0.1753
478 0.1801
479 0.1802
480 0.1802
481 0.1794
482 0.1809
483 0.1794
484 0.1773
485 0.1753
486 0.1596
487 0.1509
488 0.1635
489 0.1687
490 0.1758
491 0.1785
492 0.1724
493 0.1721
494 0.1743
495 0.1787
496 0.1789
497 0.1784
498 0.1772
499 0.1744
500 0.1743
501 0.1717
502 0.1684
503 0.1721
504 0.1756
505 0.175
506 0.1816
507 0.1846
508 0.1821
509 0.1795
510 0.1769
511 0.1751
512 0.1787
513 0.177
514 0.1729
515 0.1708
516 0.1736
517 0.1618
518 0.1523
519 0.1582
520 0.1695
521 0.1728
522 0.1762
523 0.1728
524 0.176
525 0.1815
526 0.1797
527 0.1647
528 0.1688
529 0.1798
530 0.1818
531 0.1846
532 0.1851
533 0.1832
534 0.1809
535 0.1816
536 0.1872
537 0.1831
538 0.1833
539 0.1847
540 0.1807
541 0.1773
542 0.1813
543 0.1836
544 0.1854
545 0.1872
546 0.1878
547 0.1881
548 0.1861
549 0.1871
550 0.1896
551 0.1888
552 0.1897
553 0.1895
554 0.1892
555 0.1913
556 0.1905
557 0.1868
558 0.1847
559 0.1825
560 0.1802
561 0.1848
562 0.1867
563 0.1848
564 0.1858
565 0.1865
566 0.1851
567 0.1854
568 0.1888
569 0.1875
570 0.1872
571 0.1855
572 0.186
573 0.1934
574 0.1946
575 0.1931
576 0.1905
577 0.1914
578 0.192
579 0.1896
580 0.1912
581 0.1931
582 0.1942
583 0.1964
584 0.1968
585 0.1955
586 0.1922
587 0.192
588 0.1949
589 0.1876
590 0.1798
591 0.1887
592 0.1933
593 0.194
594 0.1939
595 0.1947
596 0.194
597 0.1956
598 0.1955
599 0.1939
600 0.1946
601 0.1936
602 0.1915
603 0.1926
604 0.1963
605 0.1972
606 0.1963
607 0.1958
608 0.1952
609 0.1936
610 0.1927
611 0.193
612 0.1936
613 0.1929
614 0.1907
615 0.1907
616 0.1894
617 0.1861
618 0.1892
619 0.1922
620 0.1936
621 0.1956
622 0.1944
623 0.1934
624 0.1925
625 0.191
626 0.1905
627 0.1945
628 0.1971
629 0.1974
630 0.1953
631 0.1946
632 0.192
633 0.1946
634 0.1937
635 0.1946
636 0.1947
637 0.1944
638 0.1972
639 0.1973
640 0.1936
641 0.1923
642 0.1917
643 0.1939
644 0.1934
645 0.1939
646 0.1924
647 0.1928
648 0.1944
649 0.194
650 0.1885
651 0.1953
652 0.1965
653 0.1939
654 0.1924
655 0.1896
656 0.1773
657 0.163
658 0.1806
659 0.1895
660 0.1903
661 0.1921
662 0.1934
663 0.1929
664 0.1908
665 0.1915
666 0.1921
667 0.1912
668 0.1908
669 0.1922
670 0.1919
671 0.1913
672 0.1906
673 0.1901
674 0.1899
675 0.1897
676 0.1896
677 0.1894
678 0.1893
679 0.1892
680 0.1891
681 0.189
682 0.189
683 0.189
684 0.189
685 0.189
686 0.189
687 0.1891
688 0.1892
689 0.1896
690 0.1907
691 0.1912
692 0.1903
693 0.1898
694 0.1902
695 0.1893
696 0.1893
697 0.19
698 0.1875
699 0.1899
700 0.1906
701 0.1881
702 0.187
703 0.1879
704 0.1889
705 0.191
706 0.1899
707 0.1877
708 0.188
709 0.1865
710 0.1853
711 0.1862
712 0.1837
713 0.1832
714 0.1837
715 0.1834
716 0.1828
717 0.1837
718 0.1836
719 0.1813
720 0.1815
721 0.182
722 0.1822
723 0.1821
724 0.1829
725 0.1826
726 0.1811
727 0.1817
728 0.1815
729 0.1783
730 0.1776
731 0.181
732 0.1807
733 0.1806
734 0.1808
735 0.1809
736 0.1791
737 0.1787
738 0.1786
739 0.1746
740 0.175
741 0.1741
742 0.1729
743 0.1756
744 0.1783
745 0.1766
746 0.1786
747 0.178
748 0.1787
749 0.1778
750 0.1759
