# Top-of-atmosphere (TOA) lunar irradiance from Miller and Turner (2009)
# First column wavelength (nm), second column TOA irradiance# Lunar phase angle: 71
# Irradiance units: mW/m^2-micrometer

300 0.02592
301 0.01928
302 0.02427
303 0.0232
304 0.03282
305 0.03057
306 0.03121
307 0.02887
308 0.03358
309 0.03388
310 0.02587
311 0.03437
312 0.04078
313 0.03543
314 0.03844
315 0.03532
316 0.03638
317 0.03325
318 0.04631
319 0.03562
320 0.03927
321 0.04852
322 0.03849
323 0.04035
324 0.03763
325 0.04511
326 0.05053
327 0.05761
328 0.05594
329 0.05202
330 0.06395
331 0.05905
332 0.05848
333 0.05676
334 0.05439
335 0.05818
336 0.05932
337 0.04696
338 0.05157
339 0.05537
340 0.05767
341 0.06371
342 0.05587
343 0.06217
344 0.06251
345 0.0451
346 0.06156
347 0.05715
348 0.05671
349 0.05914
350 0.05332
351 0.07048
352 0.06291
353 0.05636
354 0.06802
355 0.0724
356 0.06789
357 0.06071
358 0.05515
359 0.04118
360 0.07048
361 0.06649
362 0.05894
363 0.0674
364 0.06366
365 0.06872
366 0.07889
367 0.084
368 0.08103
369 0.07231
370 0.08511
371 0.07547
372 0.08732
373 0.07215
374 0.06231
375 0.06359
376 0.07645
377 0.07505
378 0.09047
379 0.09715
380 0.07429
381 0.08701
382 0.07911
383 0.05676
384 0.04731
385 0.06863
386 0.07224
387 0.07317
388 0.07149
389 0.06878
390 0.08796
391 0.09003
392 0.1048
393 0.0793
394 0.03455
395 0.08001
396 0.1035
397 0.05505
398 0.0619
399 0.118
400 0.127
401 0.1276
402 0.1388
403 0.141
404 0.1382
405 0.1351
406 0.1313
407 0.1279
408 0.1298
409 0.1316
410 0.1328
411 0.123
412 0.1281
413 0.1331
414 0.1382
415 0.1388
416 0.1392
417 0.141
418 0.1382
419 0.1382
420 0.1384
421 0.1418
422 0.1446
423 0.1397
424 0.138
425 0.1414
426 0.1405
427 0.1399
428 0.1348
429 0.1347
430 0.1223
431 0.1022
432 0.1266
433 0.14
434 0.1382
435 0.1354
436 0.1456
437 0.1538
438 0.1492
439 0.1435
440 0.1495
441 0.1561
442 0.1621
443 0.1672
444 0.1677
445 0.168
446 0.1652
447 0.1643
448 0.174
449 0.1762
450 0.1781
451 0.1862
452 0.1872
453 0.1785
454 0.1741
455 0.1822
456 0.1836
457 0.1887
458 0.1889
459 0.1844
460 0.1834
461 0.1864
462 0.1894
463 0.1914
464 0.1894
465 0.1853
466 0.1855
467 0.1842
468 0.1833
469 0.1867
470 0.1855
471 0.1829
472 0.1876
473 0.1935
474 0.1912
475 0.1955
476 0.1956
477 0.193
478 0.1983
479 0.1983
480 0.1984
481 0.1976
482 0.1992
483 0.1975
484 0.1952
485 0.193
486 0.1757
487 0.1661
488 0.18
489 0.1857
490 0.1935
491 0.1965
492 0.1897
493 0.1895
494 0.1919
495 0.1967
496 0.1969
497 0.1964
498 0.195
499 0.192
500 0.1918
501 0.1889
502 0.1853
503 0.1895
504 0.1932
505 0.1926
506 0.1999
507 0.2032
508 0.2004
509 0.1976
510 0.1946
511 0.1927
512 0.1967
513 0.1947
514 0.1902
515 0.188
516 0.191
517 0.178
518 0.1676
519 0.1741
520 0.1865
521 0.1901
522 0.1938
523 0.1901
524 0.1937
525 0.1997
526 0.1977
527 0.1812
528 0.1857
529 0.1978
530 0.2
531 0.203
532 0.2036
533 0.2016
534 0.199
535 0.1998
536 0.2059
537 0.2014
538 0.2016
539 0.2031
540 0.1988
541 0.195
542 0.1995
543 0.202
544 0.2039
545 0.2059
546 0.2066
547 0.2068
548 0.2046
549 0.2058
550 0.2085
551 0.2076
552 0.2086
553 0.2085
554 0.2081
555 0.2104
556 0.2095
557 0.2054
558 0.2031
559 0.2007
560 0.1982
561 0.2032
562 0.2053
563 0.2031
564 0.2044
565 0.2051
566 0.2035
567 0.2038
568 0.2076
569 0.2062
570 0.2058
571 0.204
572 0.2045
573 0.2127
574 0.2139
575 0.2123
576 0.2094
577 0.2105
578 0.2111
579 0.2084
580 0.2102
581 0.2123
582 0.2135
583 0.2159
584 0.2163
585 0.2149
586 0.2113
587 0.2111
588 0.2142
589 0.2062
590 0.1976
591 0.2074
592 0.2125
593 0.2132
594 0.2131
595 0.214
596 0.2132
597 0.2149
598 0.2149
599 0.2132
600 0.2139
601 0.2128
602 0.2105
603 0.2116
604 0.2157
605 0.2167
606 0.2158
607 0.2152
608 0.2145
609 0.2127
610 0.2118
611 0.2121
612 0.2127
613 0.2119
614 0.2095
615 0.2095
616 0.2081
617 0.2044
618 0.2078
619 0.2112
620 0.2127
621 0.2149
622 0.2136
623 0.2125
624 0.2115
625 0.2098
626 0.2093
627 0.2136
628 0.2165
629 0.2168
630 0.2145
631 0.2137
632 0.2109
633 0.2137
634 0.2128
635 0.2137
636 0.2138
637 0.2135
638 0.2167
639 0.2167
640 0.2126
641 0.2112
642 0.2105
643 0.2129
644 0.2124
645 0.2129
646 0.2113
647 0.2118
648 0.2135
649 0.2131
650 0.207
651 0.2145
652 0.2158
653 0.2129
654 0.2113
655 0.2082
656 0.1947
657 0.179
658 0.1983
659 0.2081
660 0.209
661 0.211
662 0.2124
663 0.2118
664 0.2095
665 0.2102
666 0.2109
667 0.2099
668 0.2095
669 0.211
670 0.2107
671 0.21
672 0.2092
673 0.2087
674 0.2085
675 0.2083
676 0.2081
677 0.2079
678 0.2078
679 0.2077
680 0.2076
681 0.2075
682 0.2074
683 0.2074
684 0.2074
685 0.2074
686 0.2075
687 0.2076
688 0.2076
689 0.2081
690 0.2094
691 0.2098
692 0.2089
693 0.2083
694 0.2088
695 0.2078
696 0.2077
697 0.2085
698 0.2058
699 0.2084
700 0.2091
701 0.2064
702 0.2052
703 0.2062
704 0.2073
705 0.2096
706 0.2083
707 0.206
708 0.2063
709 0.2046
710 0.2034
711 0.2043
712 0.2016
713 0.201
714 0.2015
715 0.2012
716 0.2006
717 0.2016
718 0.2015
719 0.199
720 0.1992
721 0.1996
722 0.1999
723 0.1997
724 0.2007
725 0.2003
726 0.1987
727 0.1994
728 0.1991
729 0.1955
730 0.1948
731 0.1985
732 0.1982
733 0.1981
734 0.1983
735 0.1985
736 0.1965
737 0.196
738 0.1959
739 0.1915
740 0.1919
741 0.191
742 0.1897
743 0.1926
744 0.1956
745 0.1937
746 0.1958
747 0.1952
748 0.196
749 0.195
750 0.1928
