# Top-of-atmosphere (TOA) lunar irradiance from Miller and Turner (2009) by 10 nm increments
# First column wavelength (nm), second column TOA irradiance# Phase angle = 178
# Units = mW/m^2-micrometer

300 0.6027
310 0.5991
320 0.9056
330 1.469
340 1.319
350 1.215
360 1.599
370 1.923
380 1.672
390 1.971
400 2.834
410 2.951
420 3.063
430 2.697
440 3.283
450 3.895
460 3.993
470 4.023
480 4.285
490 4.163
500 4.11
510 4.153
520 3.963
530 4.232
540 4.19
550 4.376
560 4.144
570 4.286
580 4.359
590 4.081
600 4.398
610 4.338
620 4.339
630 4.359
640 4.302
650 4.171
660 4.194
670 4.21
680 4.132
690 4.15
700 4.128
710 3.998
720 3.9
730 3.799
740 3.728
750 3.73
