# Top-of-atmosphere (TOA) lunar irradiance from Miller and Turner (2009)
# First column wavelength (nm), second column TOA irradiance# Lunar phase angle: 152
# Irradiance units: mW/m^2-micrometer

300 0.3024
301 0.2248
302 0.2831
303 0.2705
304 0.3825
305 0.3562
306 0.3636
307 0.3363
308 0.391
309 0.3943
310 0.3011
311 0.3999
312 0.4744
313 0.412
314 0.4469
315 0.4106
316 0.4227
317 0.3863
318 0.5379
319 0.4137
320 0.4559
321 0.5631
322 0.4467
323 0.4681
324 0.4365
325 0.523
326 0.5857
327 0.6677
328 0.6482
329 0.6026
330 0.7406
331 0.6837
332 0.6769
333 0.6568
334 0.6292
335 0.673
336 0.6859
337 0.5429
338 0.596
339 0.6398
340 0.6662
341 0.7358
342 0.6451
343 0.7177
344 0.7214
345 0.5204
346 0.7101
347 0.659
348 0.6538
349 0.6817
350 0.6144
351 0.8119
352 0.7245
353 0.6489
354 0.7831
355 0.8332
356 0.7812
357 0.6984
358 0.6343
359 0.4735
360 0.8102
361 0.7641
362 0.6772
363 0.7742
364 0.7311
365 0.7889
366 0.9055
367 0.9639
368 0.9296
369 0.8293
370 0.9759
371 0.8652
372 1.001
373 0.8267
374 0.7138
375 0.7282
376 0.8753
377 0.859
378 1.035
379 1.111
380 0.8498
381 0.995
382 0.9045
383 0.6487
384 0.5406
385 0.784
386 0.825
387 0.8355
388 0.8161
389 0.7849
390 1.004
391 1.027
392 1.196
393 0.9042
394 0.3938
395 0.9118
396 1.18
397 0.627
398 0.7049
399 1.343
400 1.445
401 1.452
402 1.579
403 1.604
404 1.571
405 1.535
406 1.492
407 1.453
408 1.474
409 1.494
410 1.507
411 1.396
412 1.453
413 1.511
414 1.568
415 1.574
416 1.578
417 1.598
418 1.566
419 1.566
420 1.567
421 1.606
422 1.637
423 1.581
424 1.562
425 1.6
426 1.589
427 1.582
428 1.523
429 1.523
430 1.382
431 1.154
432 1.43
433 1.58
434 1.56
435 1.528
436 1.643
437 1.735
438 1.682
439 1.617
440 1.685
441 1.759
442 1.826
443 1.883
444 1.888
445 1.891
446 1.859
447 1.848
448 1.957
449 1.982
450 2.002
451 2.093
452 2.104
453 2.006
454 1.955
455 2.046
456 2.06
457 2.117
458 2.119
459 2.068
460 2.056
461 2.089
462 2.123
463 2.145
464 2.122
465 2.076
466 2.077
467 2.061
468 2.051
469 2.089
470 2.075
471 2.046
472 2.098
473 2.163
474 2.136
475 2.184
476 2.184
477 2.156
478 2.213
479 2.214
480 2.213
481 2.204
482 2.222
483 2.203
484 2.175
485 2.151
486 1.958
487 1.85
488 2.004
489 2.068
490 2.154
491 2.186
492 2.111
493 2.107
494 2.134
495 2.186
496 2.189
497 2.182
498 2.166
499 2.132
500 2.13
501 2.097
502 2.057
503 2.102
504 2.143
505 2.136
506 2.216
507 2.252
508 2.22
509 2.189
510 2.156
511 2.133
512 2.177
513 2.155
514 2.105
515 2.079
516 2.112
517 1.968
518 1.852
519 1.924
520 2.06
521 2.1
522 2.14
523 2.099
524 2.137
525 2.204
526 2.181
527 1.998
528 2.048
529 2.181
530 2.204
531 2.237
532 2.243
533 2.22
534 2.19
535 2.199
536 2.266
537 2.216
538 2.218
539 2.234
540 2.185
541 2.143
542 2.192
543 2.219
544 2.239
545 2.261
546 2.268
547 2.27
548 2.245
549 2.258
550 2.286
551 2.276
552 2.286
553 2.284
554 2.279
555 2.304
556 2.295
557 2.249
558 2.223
559 2.196
560 2.168
561 2.223
562 2.245
563 2.221
564 2.233
565 2.241
566 2.223
567 2.226
568 2.267
569 2.25
570 2.246
571 2.225
572 2.231
573 2.319
574 2.332
575 2.314
576 2.281
577 2.293
578 2.299
579 2.269
580 2.288
581 2.311
582 2.323
583 2.348
584 2.352
585 2.337
586 2.297
587 2.294
588 2.327
589 2.24
590 2.146
591 2.251
592 2.306
593 2.313
594 2.311
595 2.321
596 2.312
597 2.33
598 2.329
599 2.309
600 2.316
601 2.304
602 2.279
603 2.29
604 2.334
605 2.345
606 2.333
607 2.327
608 2.319
609 2.299
610 2.288
611 2.291
612 2.297
613 2.288
614 2.261
615 2.261
616 2.245
617 2.205
618 2.241
619 2.277
620 2.292
621 2.315
622 2.301
623 2.288
624 2.277
625 2.259
626 2.252
627 2.299
628 2.329
629 2.332
630 2.307
631 2.298
632 2.266
633 2.296
634 2.285
635 2.295
636 2.296
637 2.291
638 2.325
639 2.325
640 2.28
641 2.264
642 2.256
643 2.282
644 2.276
645 2.281
646 2.263
647 2.267
648 2.285
649 2.28
650 2.214
651 2.294
652 2.308
653 2.276
654 2.259
655 2.225
656 2.079
657 1.912
658 2.117
659 2.221
660 2.23
661 2.251
662 2.265
663 2.259
664 2.233
665 2.24
666 2.248
667 2.236
668 2.231
669 2.247
670 2.243
671 2.235
672 2.226
673 2.22
674 2.217
675 2.215
676 2.212
677 2.21
678 2.208
679 2.206
680 2.204
681 2.203
682 2.202
683 2.201
684 2.2
685 2.2
686 2.2
687 2.2
688 2.201
689 2.205
690 2.218
691 2.222
692 2.212
693 2.205
694 2.21
695 2.198
696 2.197
697 2.204
698 2.175
699 2.203
700 2.21
701 2.18
702 2.167
703 2.177
704 2.188
705 2.212
706 2.198
707 2.172
708 2.176
709 2.157
710 2.143
711 2.153
712 2.124
713 2.117
714 2.122
715 2.118
716 2.111
717 2.121
718 2.119
719 2.092
720 2.094
721 2.099
722 2.1
723 2.098
724 2.108
725 2.103
726 2.086
727 2.093
728 2.089
729 2.051
730 2.043
731 2.082
732 2.077
733 2.077
734 2.078
735 2.079
736 2.058
737 2.052
738 2.05
739 2.005
740 2.008
741 1.998
742 1.983
743 2.014
744 2.044
745 2.024
746 2.046
747 2.039
748 2.046
749 2.035
750 2.013
