# Top-of-atmosphere (TOA) lunar irradiance from Miller and Turner (2009)
# First column wavelength (nm), second column TOA irradiance# Lunar phase angle: 169
# Irradiance units: mW/m^2-micrometer

300 0.4737
301 0.3521
302 0.4433
303 0.4235
304 0.5988
305 0.5576
306 0.5691
307 0.5263
308 0.612
309 0.6171
310 0.4711
311 0.6257
312 0.7422
313 0.6444
314 0.699
315 0.6421
316 0.661
317 0.6041
318 0.841
319 0.6467
320 0.7126
321 0.8801
322 0.698
323 0.7314
324 0.6819
325 0.8171
326 0.915
327 1.043
328 1.012
329 0.941
330 1.156
331 1.067
332 1.057
333 1.025
334 0.9821
335 1.05
336 1.07
337 0.8471
338 0.9299
339 0.998
340 1.039
341 1.148
342 1.006
343 1.119
344 1.125
345 0.8113
346 1.107
347 1.027
348 1.019
349 1.062
350 0.9574
351 1.265
352 1.129
353 1.011
354 1.22
355 1.298
356 1.217
357 1.087
358 0.9875
359 0.7371
360 1.261
361 1.189
362 1.054
363 1.205
364 1.137
365 1.227
366 1.409
367 1.499
368 1.446
369 1.29
370 1.517
371 1.345
372 1.556
373 1.285
374 1.109
375 1.132
376 1.36
377 1.335
378 1.608
379 1.727
380 1.32
381 1.545
382 1.405
383 1.007
384 0.8394
385 1.217
386 1.281
387 1.297
388 1.267
389 1.218
390 1.557
391 1.593
392 1.855
393 1.403
394 0.6108
395 1.414
396 1.829
397 0.9721
398 1.093
399 2.083
400 2.24
401 2.25
402 2.447
403 2.486
404 2.434
405 2.378
406 2.312
407 2.251
408 2.283
409 2.314
410 2.334
411 2.162
412 2.25
413 2.338
414 2.427
415 2.436
416 2.442
417 2.473
418 2.423
419 2.422
420 2.424
421 2.483
422 2.531
423 2.444
424 2.414
425 2.473
426 2.456
427 2.445
428 2.354
429 2.353
430 2.135
431 1.783
432 2.209
433 2.441
434 2.41
435 2.36
436 2.536
437 2.679
438 2.597
439 2.496
440 2.601
441 2.715
442 2.818
443 2.905
444 2.914
445 2.917
446 2.868
447 2.85
448 3.018
449 3.056
450 3.088
451 3.227
452 3.243
453 3.092
454 3.013
455 3.153
456 3.175
457 3.263
458 3.265
459 3.186
460 3.167
461 3.218
462 3.27
463 3.302
464 3.267
465 3.195
466 3.197
467 3.173
468 3.157
469 3.215
470 3.193
471 3.148
472 3.227
473 3.328
474 3.286
475 3.359
476 3.359
477 3.314
478 3.403
479 3.403
480 3.402
481 3.387
482 3.414
483 3.384
484 3.342
485 3.304
486 3.008
487 2.842
488 3.078
489 3.176
490 3.307
491 3.356
492 3.24
493 3.234
494 3.275
495 3.356
496 3.359
497 3.348
498 3.323
499 3.27
500 3.267
501 3.217
502 3.154
503 3.223
504 3.286
505 3.274
506 3.397
507 3.452
508 3.403
509 3.354
510 3.303
511 3.269
512 3.335
513 3.301
514 3.223
515 3.184
516 3.235
517 3.014
518 2.836
519 2.945
520 3.154
521 3.214
522 3.275
523 3.212
524 3.27
525 3.372
526 3.337
527 3.057
528 3.132
529 3.335
530 3.37
531 3.42
532 3.429
533 3.393
534 3.348
535 3.36
536 3.462
537 3.386
538 3.388
539 3.412
540 3.338
541 3.273
542 3.347
543 3.388
544 3.419
545 3.451
546 3.462
547 3.465
548 3.426
549 3.445
550 3.489
551 3.473
552 3.488
553 3.484
554 3.476
555 3.514
556 3.499
557 3.429
558 3.39
559 3.348
560 3.305
561 3.388
562 3.421
563 3.384
564 3.403
565 3.414
566 3.386
567 3.39
568 3.452
569 3.427
570 3.42
571 3.388
572 3.396
573 3.53
574 3.549
575 3.521
576 3.472
577 3.488
578 3.497
579 3.452
580 3.48
581 3.514
582 3.533
583 3.571
584 3.576
585 3.553
586 3.491
587 3.486
588 3.537
589 3.403
590 3.261
591 3.42
592 3.503
593 3.513
594 3.51
595 3.524
596 3.511
597 3.537
598 3.536
599 3.506
600 3.516
601 3.497
602 3.458
603 3.475
604 3.541
605 3.557
606 3.54
607 3.529
608 3.517
609 3.486
610 3.47
611 3.474
612 3.482
613 3.468
614 3.427
615 3.427
616 3.402
617 3.341
618 3.396
619 3.449
620 3.472
621 3.506
622 3.485
623 3.465
624 3.448
625 3.419
626 3.41
627 3.479
628 3.524
629 3.528
630 3.49
631 3.476
632 3.429
633 3.473
634 3.456
635 3.47
636 3.471
637 3.464
638 3.514
639 3.515
640 3.447
641 3.422
642 3.41
643 3.448
644 3.439
645 3.446
646 3.418
647 3.425
648 3.451
649 3.443
650 3.343
651 3.464
652 3.483
653 3.435
654 3.409
655 3.357
656 3.138
657 2.885
658 3.194
659 3.351
660 3.364
661 3.394
662 3.416
663 3.406
664 3.367
665 3.378
666 3.388
667 3.37
668 3.363
669 3.386
670 3.379
671 3.368
672 3.353
673 3.345
674 3.34
675 3.335
676 3.331
677 3.327
678 3.324
679 3.32
680 3.318
681 3.315
682 3.313
683 3.312
684 3.311
685 3.31
686 3.309
687 3.309
688 3.31
689 3.316
690 3.334
691 3.341
692 3.325
693 3.314
694 3.321
695 3.303
696 3.301
697 3.312
698 3.268
699 3.309
700 3.319
701 3.275
702 3.254
703 3.269
704 3.286
705 3.32
706 3.3
707 3.261
708 3.265
709 3.237
710 3.216
711 3.23
712 3.186
713 3.175
714 3.182
715 3.177
716 3.166
717 3.18
718 3.177
719 3.137
720 3.139
721 3.145
722 3.147
723 3.144
724 3.158
725 3.151
726 3.125
727 3.134
728 3.129
729 3.072
730 3.059
731 3.116
732 3.11
733 3.108
734 3.109
735 3.111
736 3.079
737 3.07
738 3.067
739 2.999
740 3.004
741 2.987
742 2.966
743 3.011
744 3.056
745 3.025
746 3.058
747 3.047
748 3.058
749 3.041
750 3.007
