# Top-of-atmosphere (TOA) lunar irradiance from Miller and Turner (2009) by 10 nm increments
# First column wavelength (nm), second column TOA irradiance# Phase angle = 148
# Units = mW/m^2-micrometer

300 0.2721
310 0.271
320 0.4105
330 0.667
340 0.6001
350 0.5536
360 0.7302
370 0.8797
380 0.7663
390 0.9052
400 1.304
410 1.36
420 1.414
430 1.248
440 1.522
450 1.809
460 1.858
470 1.875
480 2.001
490 1.947
500 1.926
510 1.95
520 1.864
530 1.995
540 1.978
550 2.07
560 1.964
570 2.035
580 2.073
590 1.945
600 2.1
610 2.075
620 2.079
630 2.093
640 2.069
650 2.01
660 2.025
670 2.037
680 2.002
690 2.015
700 2.008
710 1.948
720 1.904
730 1.858
740 1.827
750 1.831
