# Top-of-atmosphere (TOA) lunar irradiance from Miller and Turner (2009) by 10 nm increments
# First column wavelength (nm), second column TOA irradiance# Phase angle = 160
# Units = mW/m^2-micrometer

300 0.3727
310 0.3709
320 0.5613
330 0.9114
340 0.8195
350 0.7555
360 0.9956
370 1.199
380 1.043
390 1.232
400 1.772
410 1.848
420 1.92
430 1.693
440 2.063
450 2.45
460 2.515
470 2.536
480 2.704
490 2.63
500 2.6
510 2.63
520 2.513
530 2.686
540 2.662
550 2.784
560 2.639
570 2.733
580 2.782
590 2.608
600 2.814
610 2.779
620 2.782
630 2.798
640 2.765
650 2.683
660 2.701
670 2.715
680 2.667
690 2.682
700 2.671
710 2.59
720 2.529
730 2.467
740 2.423
750 2.427
