# Top-of-atmosphere (TOA) lunar irradiance from Miller and Turner (2009) by 10 nm increments
# First column wavelength (nm), second column TOA irradiance# Phase angle = 88
# Units = mW/m^2-micrometer

300 0.05294
310 0.0528
320 0.08007
330 0.1303
340 0.1174
350 0.1085
360 0.1432
370 0.1728
380 0.1507
390 0.1783
400 0.2571
410 0.2687
420 0.2798
430 0.2471
440 0.3018
450 0.3593
460 0.3695
470 0.3735
480 0.3991
490 0.389
500 0.3853
510 0.3906
520 0.3739
530 0.4006
540 0.3979
550 0.417
560 0.3961
570 0.411
580 0.4194
590 0.3939
600 0.4259
610 0.4215
620 0.4229
630 0.4262
640 0.422
650 0.4105
660 0.4141
670 0.4171
680 0.4106
690 0.4138
700 0.413
710 0.4012
720 0.3926
730 0.3837
740 0.3778
750 0.3792
